Folder: fsri_materials_database/01_Data/NFPA_1981-2019_SCBA_Lens/STA/N2/10K_min (part 3)

File: NFPA_1981-2019_SCBA_Lens_STA_N2_10KData_250908_R1.csv
Temp./C,Time/min,DSC/(mW/mg),Mass loss/mg
40,0,0.56121,-0.0161991
42.6,0.350444,0.62809,-0.0166473
45.2,0.682409,0.66212,-0.0160637
47.8,1.00071,0.69462,-0.0165719
50.4,1.30939,0.72442,-0.0174158
53,1.60895,0.75388,-0.0161564
55.6,1.90351,0.77541,-0.01674769
58.2,2.19164,0.80531,-0.0178246
60.8,2.47094,0.83189,-0.01688734
63.4,2.74945,0.85381,-0.0186574
66,3.02223,0.87681,-0.0191142
68.6,3.29333,0.90627,-0.0189812
71.2,3.56061,0.93283,-0.0190981
73.8,3.82728,0.94847,-0.01920086
76.4,4.09196,0.97346,-0.0177419
79,4.35514,0.98567,-0.0190992
81.6,4.6155,1.00024,-0.0193802
84.2,4.87646,1.01593,-0.0190074
86.8,5.13559,1.01186,-0.0202672
89.4,5.39263,1.01851,-0.020234
92,5.64727,1.02446,-0.0201974
94.6,5.9016,1.03442,-0.0203319
97.2,6.15558,1.0594,-0.0213849
99.8,6.40706,1.06559,-0.0189895
102.4,6.65818,1.07375,-2.13E-02
105,6.90897,1.09282,-2.04E-02
107.6,7.15934,1.10889,-2.10E-02
110.2,7.40932,1.11882,-2.16E-02
112.8,7.65809,1.14075,-2.10E-02
115.4,7.90713,1.15785,-2.18E-02
118,8.15784,1.16853,-2.14E-02
120.6,8.40639,1.18266,-2.18E-02
123.2,8.65556,1.188,-2.19E-02
125.8,8.90424,1.20799,-2.30E-02
128.4,9.15183,1.21263,-2.21E-02
131,9.39991,1.2185,-2.21E-02
133.6,9.64847,1.23472,-2.18E-02
136.2,9.8929,1.23954,-2.16E-02
138.8,10.1409,1.25528,-2.15E-02
141.4,10.3848,1.27157,-2.11E-02
144,10.6328,1.2792,-2.22E-02
146.6,10.878,1.28902,-2.22E-02
149.2,11.1239,1.29143,-2.10E-02
151.8,11.3685,1.30908,-2.25E-02
154.4,11.6154,1.32309,-2.13E-02
157,11.8613,1.32731,-2.15E-02
159.6,12.1056,1.34009,-2.29E-02
162.2,12.3506,1.34462,-2.17E-02
164.8,12.5966,1.35618,-2.31E-02
167.4,12.8404,1.35828,-2.26E-02
170,13.0866,1.37217,-2.21E-02
172.6,13.3315,1.37852,-2.29E-02
175.2,13.5776,1.38331,-2.31E-02
177.8,13.8231,1.38273,-2.21E-02
180.4,14.0676,1.39802,-2.23E-02
183,14.3125,1.40235,-2.25E-02
185.6,14.5569,1.41388,-2.15E-02
188.2,14.8014,1.41998,-2.19E-02
190.8,15.0439,1.43255,-2.36E-02
193.4,15.2901,1.44759,-2.27E-02
196,15.5366,1.45795,-2.31E-02
198.6,15.7811,1.49073,-2.28E-02
201.2,16.0261,1.53732,-2.25E-02
203.8,16.2711,1.60501,-2.30E-02
206.4,16.5162,1.66629,-2.34E-02
209,16.7613,1.67612,-2.26E-02
211.6,17.0057,1.65935,-2.37E-02
214.2,17.2503,1.66454,-2.35E-02
216.8,17.4955,1.66776,-2.27E-02
219.4,17.7397,1.6661,-2.46E-02
222,17.9847,1.67513,-2.51E-02
224.6,18.2292,1.68116,-2.44E-02
227.2,18.4747,1.68515,-2.51E-02
229.8,18.7199,1.70134,-2.44E-02
232.4,18.965,1.6945,-2.37E-02
235,19.2097,1.7107,-2.43E-02
237.6,19.4546,1.7254,-2.36E-02
240.2,19.7007,1.71662,-2.42E-02
242.8,19.9466,1.72487,-2.49E-02
245.4,20.1921,1.72979,-2.52E-02
248,20.4377,1.73397,-2.49E-02
250.6,20.6834,1.74165,-2.55E-02
253.2,20.9298,1.753,-2.49E-02
255.8,21.1747,1.76014,-2.45E-02
258.4,21.4192,1.76683,-2.53E-02
261,21.6679,1.76538,-2.48E-02
263.6,21.9131,1.77712,-2.42E-02
266.2,22.1593,1.77485,-2.50E-02
268.8,22.4057,1.78533,-2.58E-02
271.4,22.6532,1.78551,-2.53E-02
274,22.899,1.79512,-2.48E-02
276.6,23.1466,1.80265,-2.50E-02
279.2,23.393,1.80696,-2.62E-02
281.8,23.6383,1.79743,-2.48E-02
284.4,23.8867,1.8013,-2.42E-02
287,24.1343,1.8095,-2.48E-02
289.6,24.3814,1.81427,-2.62E-02
292.2,24.6288,1.82762,-2.59E-02
294.8,24.8772,1.83066,-2.70E-02
297.4,25.1254,1.83411,-2.68E-02
300,25.3723,1.84246,-2.56E-02
302.6,25.6205,1.8325,-2.67E-02
305.2,25.8693,1.83567,-2.66E-02
307.8,26.1178,1.83681,-2.64E-02
310.4,26.3642,1.83965,-2.70E-02
313,26.6125,1.84631,-2.64E-02
315.6,26.8606,1.84488,-2.77E-02
318.2,27.1091,1.84902,-2.66E-02
320.8,27.3579,1.8482,-2.79E-02
323.4,27.6073,1.85491,-2.80E-02
326,27.8563,1.86684,-2.82E-02
328.6,28.105,1.86286,-2.83E-02
331.2,28.3539,1.86061,-2.89E-02
333.8,28.6025,1.85665,-3.04E-02
336.4,28.8508,1.86754,-3.06E-02
339,29.1003,1.87295,-3.02E-02
341.6,29.3487,1.8795,-2.95E-02
344.2,29.5981,1.87442,-3.11E-02
346.8,29.8484,1.86733,-3.22E-02
349.4,30.0988,1.87577,-3.25E-02
352,30.349,1.87304,-3.27E-02
354.6,30.599,1.88803,-3.33E-02
357.2,30.849,1.87572,-3.36E-02
359.8,31.1003,1.87876,-3.33E-02
362.4,31.3505,1.87995,-3.36E-02
365,31.6021,1.87335,-3.53E-02
367.6,31.8522,1.87561,-3.51E-02
370.2,32.1028,1.87449,-3.56E-02
372.8,32.3527,1.87551,-3.72E-02
375.4,32.6041,1.87174,-3.65E-02
378,32.8555,1.86861,-3.85E-02
380.6,33.1075,1.85728,-3.92E-02
383.2,33.3584,1.84603,-4.02E-02
385.8,33.6097,1.83341,-3.98E-02
388.4,33.8614,1.84094,-4.20E-02
391,34.114,1.8461,-4.37E-02
393.6,34.3654,1.83496,-4.35E-02
396.2,34.618,1.82598,-4.47E-02
398.8,34.8709,1.83306,-4.70E-02
401.4,35.1238,1.83231,-4.84E-02
404,35.373,1.8354,-4.94E-02
406.6,35.6282,1.8417,-5.12E-02
409.2,35.8791,1.8449,-5.31E-02
411.8,36.1348,1.82806,-5.45E-02
414.4,36.3873,1.83748,-5.79E-02
417,36.6403,1.83303,-6.06E-02
419.6,36.8929,1.84731,-6.31E-02
422.2,37.1479,1.84618,-6.68E-02
424.8,37.4011,1.85701,-7.11E-02
427.4,37.6543,1.86988,-7.54E-02
430,37.9103,1.87243,-8.09E-02
432.6,38.1643,1.8804,-8.73E-02
435.2,38.4184,1.88907,-9.47E-02
437.8,38.6714,1.89851,-0.10179
440.4,38.9271,1.90883,-0.11283
443,39.1814,1.90232,-0.12418
445.6,39.436,1.91529,-0.13576
448.2,39.6905,1.94403,-0.15209
450.8,39.946,1.96972,-0.17071
453.4,40.2018,2.01156,-0.19244
456,40.4548,2.02436,-0.21726
458.6,40.7107,2.07478,-0.24884
461.2,40.9658,2.1096,-0.287
463.8,41.222,2.17453,-0.33202
466.4,41.4773,2.25005,-0.38538
469,41.7343,2.33788,-0.44859
471.6,41.9888,2.37516,-0.52232
474.2,42.2477,2.48861,-0.60839
476.8,42.5046,2.53991,-0.70852
479.4,42.7627,2.66757,-0.82194
482,43.0177,2.77041,-0.95242
484.6,43.2779,2.97604,-1.09836
487.2,43.5341,3.0109,-1.26152
489.8,43.7914,3.07155,-1.44041
492.4,44.0491,3.21325,-1.6353
495,44.3051,3.211,-1.84247
497.6,44.5612,3.33216,-2.05394
500.2,44.8172,3.36227,-2.22821
502.8,45.0703,3.17514,-2.36259
505.4,45.3197,2.79436,-2.47954
508,45.5672,2.16257,-2.60117
510.6,45.8158,1.60413,-2.71634
513.2,46.0645,1.18456,-2.81431
515.8,46.316,0.91529,-2.89669
518.4,46.5684,0.74671,-2.96473
521,46.8221,0.70775,-3.02488
523.6,47.076,0.69365,-3.06504
526.2,47.3316,0.71098,-3.10606
528.8,47.5873,0.71923,-3.13815
531.4,47.8425,0.72287,-3.16219
534,48.0996,0.74149,-3.18217
536.6,48.3543,0.75774,-3.20539
539.2,48.6108,0.75212,-3.26015
541.8,48.8649,0.75384,-3.39566
544.4,49.1235,0.75801,-3.542
547,49.3942,0.59391,-3.63142
549.6,49.6698,0.49161,-3.67816
552.2,49.9361,0.4811,-3.68258
554.8,50.1979,0.475,-3.62718
557.4,50.4566,0.45197,-3.54838
560,50.7153,0.46112,-3.47833
562.6,50.9719,0.44919,-3.42185
565.2,51.2294,0.45586,-3.38395
567.8,51.4877,0.43766,-3.35944
570.4,51.7455,0.42734,-3.34242
573,52.0051,0.42359,-3.33413
575.6,52.2642,0.42577,-3.33008
578.2,52.5231,0.42199,-3.32633
580.8,52.7835,0.43214,-3.32622
583.4,53.0423,0.4458,-3.32646
586,53.3016,0.4604,-3.3272
588.6,53.5613,0.46796,-3.32766
591.2,53.8212,0.48884,-3.33092
593.8,54.0812,0.48449,-3.33293
596.4,54.3417,0.48826,-3.33432
599,54.6022,0.48635,-3.33624
601.6,54.8626,0.47538,-3.33851
604.2,55.1217,0.4911,-3.33922
606.8,55.3825,0.47882,-3.34128
609.4,55.6446,0.60439,-3.34267
612,55.9039,0.49311,-3.34373
614.6,56.1643,0.48062,-3.34571
617.2,56.4246,0.48527,-3.34901
619.8,56.6852,0.46443,-3.35094
622.4,56.9443,0.47661,-3.35189
625,57.2041,0.47029,-3.35344
627.6,57.4641,0.4588,-3.35399
630.2,57.7248,0.46534,-3.35686
632.8,57.9852,0.47056,-3.35736
635.4,58.2461,0.48616,-3.35773
638,58.5079,0.48081,-3.35819
640.6,58.7701,0.47074,-3.36094
643.2,59.03,0.4546,-3.36128
645.8,59.2903,0.45854,-3.36296
648.4,59.5491,0.45486,-3.36389
651,59.8084,0.43177,-3.3669
653.6,60.0684,0.42508,-3.36588
656.2,60.3271,0.46197,-3.3688
658.8,60.5872,0.47455,-3.37045
661.4,60.8464,0.48141,-3.37129
664,61.1066,0.48567,-3.37213
666.6,61.3665,0.47488,-3.37118
669.2,61.6274,0.46209,-3.37278
671.8,61.8867,0.44923,-3.37442
674.4,62.1461,0.42794,-3.37605
677,62.4059,0.42612,-3.37755
679.6,62.6655,0.4103,-3.37865
682.2,62.9264,0.40789,-3.37926
684.8,63.1868,0.40658,-3.38082
687.4,63.4453,0.40262,-3.38215
690,63.7074,0.39806,-3.38234
692.6,63.967,0.37189,-3.38391
695.2,64.2271,0.3789,-3.3842
697.8,64.487,0.37661,-3.38462
700.4,64.7463,0.36406,-3.38744
703,65.0057,0.3568,-3.38763
705.6,65.2655,0.33932,-3.3891
708.2,65.5256,0.3469,-3.38989
710.8,65.7849,0.33595,-3.39071
713.4,66.0453,0.32101,-3.39085
716,66.3047,0.3086,-3.39232
718.6,66.5633,0.29402,-3.39316
721.2,66.8248,0.28916,-3.39458
723.8,67.0853,0.28525,-3.39606
726.4,67.3454,0.25621,-3.39684
729,67.6053,0.26731,-3.39761
731.6,67.8657,0.27007,-3.39769
734.2,68.1277,0.27315,-3.39773
736.8,68.3886,0.27556,-3.39777
739.4,68.6492,0.26353,-3.39953
742,68.9089,0.23557,-3.40063
744.6,69.169,0.23515,-3.40061
747.2,69.4279,0.23276,-3.40315
749.8,69.6901,0.20409,-3.40164
752.4,69.9502,0.16639,-3.40288
755,70.2116,0.14725,-3.40275
757.6,70.4719,0.14933,-3.40395
760.2,70.7333,0.14302,-3.40515
762.8,70.9938,0.14875,-3.40673
765.4,71.2569,0.1423,-3.40657
768,71.5201,0.13874,-3.40643
770.6,71.7823,0.12638,-3.40627
773.2,72.0438,0.13625,-3.40741
775.8,72.3061,0.11718,-3.40852
778.4,72.5686,0.07861631,-3.4083
781,72.831,0.05524361,-3.40942
783.6,73.0932,0.02997975,-3.40945
786.2,73.3562,0.05117905,-3.40985
788.8,73.6194,0.04109716,-3.40956
790,73.741,0.0326174,-3.41001

File: NFPA_1981-2019_SCBA_Lens_STA_N2_10KData_250910_R3.csv
Temp./C,Time/min,DSC/(mW/mg),Mass loss/mg
40,0,0.57368,-9.98E-03
42.6,0.347181,0.61413,-1.80E-02
45.2,0.675748,0.65733,-2.18E-02
47.8,0.995243,0.68676,-1.99E-02
50.4,1.3048,0.71777,-1.76E-02
53,1.60458,0.7431,-1.63E-02
55.6,1.89693,0.76128,-1.52E-02
58.2,2.18462,0.79686,-1.47E-02
60.8,2.46717,0.81358,-1.42E-02
63.4,2.74325,0.84492,-1.49E-02
66,3.01746,0.86154,-1.47E-02
68.6,3.28838,0.8905,-1.39E-02
71.2,3.55546,0.90877,-1.52E-02
73.8,3.81987,0.92518,-1.36E-02
76.4,4.08295,0.9492,-1.43E-02
79,4.34633,0.95648,-1.43E-02
81.6,4.60876,0.96779,-1.46E-02
84.2,4.86745,0.98246,-1.38E-02
86.8,5.12473,0.9867,-1.45E-02
89.4,5.38079,0.97896,-1.42E-02
92,5.63615,0.99887,-1.40E-02
94.6,5.88943,1.01035,-1.49E-02
97.2,6.14191,1.02017,-1.41E-02
99.8,6.3939,1.03105,-1.40E-02
102.4,6.64466,1.04508,-1.42E-02
105,6.89486,1.05331,-1.46E-02
107.6,7.14387,1.07206,-1.49E-02
110.2,7.39444,1.08423,-1.53E-02
112.8,7.64439,1.09646,-1.57E-02
115.4,7.89324,1.11512,-1.49E-02
118,8.14311,1.11868,-1.55E-02
120.6,8.39244,1.14047,-1.48E-02
123.2,8.64081,1.14631,-1.43E-02
125.8,8.89051,1.15176,-1.64E-02
128.4,9.13834,1.16166,-1.46E-02
131,9.38747,1.17404,-1.42E-02
133.6,9.63344,1.17884,-1.39E-02
136.2,9.88148,1.18571,-1.49E-02
138.8,10.1259,1.19506,-1.46E-02
141.4,10.3729,1.20345,-1.44E-02
144,10.6195,1.21437,-1.43E-02
146.6,10.8663,1.21935,-1.42E-02
149.2,11.1132,1.23602,-1.40E-02
151.8,11.3587,1.2459,-1.40E-02
154.4,11.6041,1.25713,-1.39E-02
157,11.8502,1.26827,-1.68E-02
159.6,12.096,1.28217,-1.40E-02
162.2,12.3396,1.2856,-1.46E-02
164.8,12.5854,1.28576,-1.46E-02
167.4,12.8304,1.29922,-1.48E-02
170,13.0757,1.30127,-1.37E-02
172.6,13.3211,1.31069,-1.49E-02
175.2,13.5662,1.31917,-1.47E-02
177.8,13.81,1.32653,-1.39E-02
180.4,14.0555,1.33402,-1.40E-02
183,14.3008,1.3351,-1.43E-02
185.6,14.5449,1.34556,-1.45E-02
188.2,14.7889,1.35873,-1.47E-02
190.8,15.0334,1.36653,-1.50E-02
193.4,15.277,1.37356,-1.63E-02
196,15.5218,1.3871,-1.50E-02
198.6,15.7662,1.40786,-1.54E-02
201.2,16.0107,1.46356,-1.58E-02
203.8,16.2568,1.53008,-1.48E-02
206.4,16.49971,1.58078,-1.52E-02
209,16.7467,1.58409,-1.56E-02
211.6,16.9904,1.57276,-1.47E-02
214.2,17.2354,1.56181,-1.52E-02
216.8,17.4794,1.57541,-1.43E-02
219.4,17.7245,1.57583,-1.48E-02
222,17.9687,1.58161,-1.53E-02
224.6,18.2137,1.58478,-1.45E-02
227.2,18.457,1.5914,-1.50E-02
229.8,18.7029,1.59798,-1.48E-02
232.4,18.9481,1.6129,-1.50E-02
235,19.1916,1.62428,-1.48E-02
237.6,19.4361,1.6242,-1.41E-02
240.2,19.6818,1.62648,-1.47E-02
242.8,19.9271,1.62766,-1.54E-02
245.4,20.173,1.63007,-1.47E-02
248,20.4172,1.64923,-1.50E-02
250.6,20.6637,1.65427,-1.60E-02
253.2,20.9095,1.65037,-1.40E-02
255.8,21.156,1.65999,-1.48E-02
258.4,21.3986,1.67005,-1.55E-02
261,21.6459,1.67072,-1.49E-02
263.6,21.8931,1.6719,-1.57E-02
266.2,22.1383,1.68598,-1.48E-02
268.8,22.3849,1.68342,-1.43E-02
271.4,22.631,1.68698,-1.38E-02
274,22.8777,1.68729,-1.35E-02
276.6,23.1255,1.69121,-1.38E-02
279.2,23.3708,1.69946,-1.34E-02
281.8,23.6187,1.70222,-1.36E-02
284.4,23.8655,1.71325,-1.32E-02
287,24.1142,1.71646,-1.41E-02
289.6,24.3627,1.7185,-1.24E-02
292.2,24.6114,1.71413,-1.28E-02
294.8,24.8611,1.72567,-1.19E-02
297.4,25.1095,1.73009,-1.29E-02
300,25.3581,1.74096,-1.30E-02
302.6,25.6073,1.75041,-1.37E-02
305.2,25.8564,1.76468,-1.29E-02
307.8,26.1051,1.7586,-1.26E-02
310.4,26.3531,1.76309,-1.38E-02
313,26.6007,1.77092,-1.37E-02
315.6,26.8491,1.77875,-1.38E-02
318.2,27.098,1.7808,-1.36E-02
320.8,27.3449,1.78479,-1.35E-02
323.4,27.5938,1.76758,-1.38E-02
326,27.8428,1.7852,-1.33E-02
328.6,28.0913,1.78331,-1.46E-02
331.2,28.3413,1.7897,-1.44E-02
333.8,28.588,1.78448,-1.34E-02
336.4,28.8399,1.78676,-1.34E-02
339,29.0898,1.79306,-1.39E-02
341.6,29.3408,1.79711,-1.27E-02
344.2,29.5885,1.78367,-1.44E-02
346.8,29.8394,1.80273,-1.49E-02
349.4,30.0889,1.79844,-1.36E-02
352,30.3403,1.79988,-1.51E-02
354.6,30.5899,1.7957,-1.52E-02
357.2,30.8407,1.78729,-1.55E-02
359.8,31.091,1.77741,-1.68E-02
362.4,31.342,1.79029,-1.65E-02
365,31.5926,1.78913,-1.69E-02
367.6,31.8419,1.7912,-1.73E-02
370.2,32.094,1.78151,-1.90E-02
372.8,32.3448,1.78041,-1.81E-02
375.4,32.5962,1.78174,-1.86E-02
378,32.8474,1.76613,-2.00E-02
380.6,33.0994,1.76059,-1.93E-02
383.2,33.3507,1.75579,-1.99E-02
385.8,33.6023,1.76346,-2.07E-02
388.4,33.8534,1.75714,-2.24E-02
391,34.1049,1.74555,-2.28E-02
393.6,34.3569,1.74745,-2.37E-02
396.2,34.6108,1.74787,-2.41E-02
398.8,34.8635,1.7495,-2.49E-02
401.4,35.1164,1.76175,-2.60E-02
404,35.3686,1.74825,-2.72E-02
406.6,35.623,1.74227,-2.84E-02
409.2,35.8758,1.75229,-2.81E-02
411.8,36.1279,1.75282,-2.95E-02
414.4,36.3813,1.75678,-3.21E-02
417,36.6344,1.7718,-3.40E-02
419.6,36.8901,1.76298,-3.47E-02
422.2,37.1425,1.75942,-3.81E-02
424.8,37.3958,1.76792,-3.96E-02
427.4,37.6492,1.77767,-4.35E-02
430,37.9033,1.79541,-4.58E-02
432.6,38.1565,1.80737,-4.96E-02
435.2,38.4103,1.82627,-5.50E-02
437.8,38.6644,1.83427,-6.09E-02
440.4,38.9173,1.83276,-6.72E-02
443,39.171,1.83588,-7.49E-02
445.6,39.425,1.84207,-8.36E-02
448.2,39.6793,1.85069,-9.37E-02
450.8,39.9338,1.89084,-0.10408
453.4,40.1886,1.92933,-0.11875
456,40.4432,1.96084,-0.13369
458.6,40.6976,2.00927,-0.15409
461.2,40.9534,2.02388,-0.17541
463.8,41.2091,2.08973,-0.20172
466.4,41.463,2.16259,-0.23459
469,41.721,2.23143,-0.27287
471.6,41.9768,2.36795,-0.31844
474.2,42.2325,2.39008,-0.37185
476.8,42.4901,2.50296,-0.43386
479.4,42.7446,2.54406,-0.50682
482,43.0048,2.73795,-0.59081
484.6,43.2596,2.7131,-0.68734
487.2,43.5184,2.89924,-0.7953
489.8,43.7749,2.95736,-0.91304
492.4,44.0303,2.98662,-1.03166
495,44.2857,3.16694,-1.16793
497.6,44.5397,3.2256,-1.31993
500.2,44.7942,3.20699,-1.48061
502.8,45.0477,3.10774,-1.6477
505.4,45.2992,2.71704,-1.81785
508,45.548,2.12309,-1.98871
510.6,45.7968,1.56323,-2.15282
513.2,46.047,1.13429,-2.30428
515.8,46.2981,0.82325,-2.45531
518.4,46.5517,0.67897,-2.59791
521,46.8039,0.59437,-2.7219
523.6,47.0605,0.57906,-2.8278
526.2,47.3162,0.57809,-2.91666
528.8,47.5729,0.58615,-2.98882
531.4,47.83,0.59177,-3.04191
534,48.087,0.60558,-3.0842
536.6,48.3437,0.60357,-3.11943
539.2,48.6015,0.60256,-3.14766
541.8,48.859,0.58912,-3.16616
544.4,49.1166,0.58662,-3.17545
547,49.3754,0.58411,-3.18921
549.6,49.6332,0.58233,-3.19825
552.2,49.8916,0.56733,-3.20843
554.8,50.1511,0.56032,-3.22873
557.4,50.4102,0.54706,-3.24534
560,50.6697,0.52976,-3.25146
562.6,50.9285,0.53288,-3.26032
565.2,51.1799,-0.27788,-3.26327
567.8,51.4348,-0.73834,-3.26941
570.4,51.695,-0.7694,-3.27947
573,51.9525,-0.77622,-3.29093
575.6,52.2118,-0.795,-3.29815
578.2,52.4729,-0.81554,-3.29831
580.8,52.7321,-0.82602,-3.29026
583.4,52.9931,-0.83056,-3.28766
586,53.2535,-0.82153,-3.28665
588.6,53.5121,-0.83343,-3.28618
591.2,53.7724,-0.85437,-3.29022
593.8,54.0328,-0.85961,-3.29604
596.4,54.2926,-0.86234,-3.29166
599,54.5533,-0.85406,-3.28577
601.6,54.8124,-0.86662,-3.28495
604.2,55.0747,-0.88016,-3.28436
606.8,55.334,-0.88595,-3.28722
609.4,55.5969,-0.89114,-3.29089
612,55.8571,-0.89568,-3.29496
614.6,56.1182,-0.90649,-3.29771
617.2,56.3791,-0.92804,-3.30161
619.8,56.6405,-0.94685,-3.30541
622.4,56.901,-0.96572,-3.31113
625,57.1619,-0.98967,-3.32391
627.6,57.4234,-1.01756,-3.3368
630.2,57.6859,-1.03898,-3.34889
632.8,57.9458,-1.05716,-3.36915
635.4,58.2108,-1.10661,-3.38342
638,58.4716,-1.12997,-3.39369
640.6,58.7328,-1.15946,-3.39689
643.2,58.9932,-1.18062,-3.40601
645.8,59.2559,-1.17935,-3.41188
648.4,59.5149,-1.20888,-3.41036
651,59.7789,-1.2312,-3.40484
653.6,60.0406,-1.25973,-3.40321
656.2,60.3033,-1.29561,-3.39236
658.8,60.5645,-1.31467,-3.37324
661.4,60.8247,-1.34291,-3.35916
664,61.0851,-1.36918,-3.35914
666.6,61.3484,-1.38347,-3.36431
669.2,61.6097,-1.42644,-3.36077
671.8,61.8716,-1.47885,-3.36432
674.4,62.1321,-1.51103,-3.36387
677,62.3921,-1.54041,-3.36292
679.6,62.6523,-1.56219,-3.36793
682.2,62.9155,-1.35015,-3.37226
684.8,63.173,-1.37381,-3.38408
687.4,63.4355,-1.41238,-3.39131
690,63.6957,-1.43088,-3.39158
692.6,63.9557,-1.45152,-3.38609
695.2,64.216,-1.47155,-3.39543
697.8,64.4782,-1.52214,-3.39872
700.4,64.7405,-1.54555,-3.40235
703,64.9998,-1.54588,-3.40469
705.6,65.2614,-1.5898,-3.40781
708.2,65.5228,-1.61375,-3.41088
710.8,65.7832,-1.6427,-3.41251
713.4,66.0436,-1.67465,-3.41522
716,66.3054,-1.69366,-3.4195
718.6,66.5649,-1.7217,-3.41786
721.2,66.824,-1.74471,-3.41061
723.8,67.0859,-1.76566,-3.40907
726.4,67.3462,-1.79115,-3.40554
729,67.6076,-1.82895,-3.40026
731.6,67.8687,-1.84748,-3.3937
734.2,68.1299,-1.87271,-3.38871
736.8,68.3917,-1.88437,-3.38326
739.4,68.6539,-1.91185,-3.38026
742,68.9156,-1.9353,-3.37892
744.6,69.1779,-1.94664,-3.37708
747.2,69.4391,-1.97595,-3.37496
749.8,69.7003,-1.97976,-3.3751
752.4,69.9614,-2.01702,-3.37506
755,70.2236,-2.05564,-3.37547
757.6,70.4854,-2.06594,-3.37569
760.2,70.7465,-2.07684,-3.3768
762.8,71.0087,-2.09548,-3.3782
765.4,71.2713,-2.09831,-3.37828
768,71.5341,-2.10246,-3.379
770.6,71.7943,-2.12501,-3.3796
773.2,72.0588,-2.13516,-3.37945
775.8,72.3216,-2.14128,-3.3805
778.4,72.5846,-2.14408,-3.38011
781,72.8488,-2.16593,-3.38093
783.6,73.111,-2.19495,-3.38073
786.2,73.3732,-2.22466,-3.38276
788.8,73.6366,-2.2387,-3.38216
,,,-3.38156
,,,-3.38231
,,,-3.38299
,,,-3.38222