Folder: fsri_materials_database/01_Data/NFPA_1981-2019_SCBA_Lens/STA/N2/10K_min (part 2)

File: NFPA_1981-2019_SCBA_Lens_STA_N2_10KData_230605_R3.csv
Temp./C,Time/min,DSC/(mW/mg),Mass loss/mg
40.0,0.0,0.701587,-0.0287514
42.4,0.282438,0.748542,-0.027121
44.8,0.553349,0.787816,-0.0288155
47.2,0.821193,0.818235,-0.0282117
49.6,1.08393,0.832654,-0.0284292
52,1.34348,0.848129,-0.028767
54.4,1.59866,0.879411,-0.0288033
56.8,1.85399,0.895123,-0.0287703
59.2,2.10429,0.923145,-0.0286806
61.6,2.35309,0.935397,-0.0291683
64,2.59977,0.947619,-0.0287803
66.4,2.8433,0.97268,-0.0301123
68.8,3.08543,0.98321,-0.0291209
71.2,3.32989,1.0039,-0.0300409
73.6,3.56822,1.01753,-0.0291254
76,3.80763,1.03105,-0.0284561
78.4,4.04949,1.04763,-0.0287705
80.8,4.28848,1.06652,-0.0293372
83.2,4.5265,1.07925,-0.0290999
85.6,4.7658,1.09066,-0.0300896
88,5.00211,1.09933,-0.0287697
90.4,5.23842,1.11531,-0.0290805
92.8,5.47331,1.12304,-0.0314258
95.2,5.70851,1.12624,-0.0300899
97.6,5.94269,1.12667,-0.0300885
100,6.17323,1.13188,-0.0300985
102.4,6.40802,1.13454,-0.0300837
104.8,6.64201,1.13457,-0.0300798
107.2,6.87537,1.14247,-0.0297336
109.6,7.10781,1.15292,-0.0315729
112,7.3396,1.16135,-0.0314
114.4,7.57255,1.16972,-0.0313317
116.8,7.80644,1.17882,-0.0304198
119.2,8.03754,1.19579,-0.0317402
121.6,8.26886,1.20513,-0.0317299
124,8.50057,1.21457,-0.0304089
126.4,8.7329,1.2204,-0.03042
128.8,8.96343,1.22886,-0.03075
131.2,9.19468,1.2362,-0.031411
133.6,9.42374,1.24583,-0.0317296
136,9.65594,1.24075,-0.0314241
138.4,9.88591,1.25243,-0.031401
140.8,10.1153,1.25949,-0.0327304
143.2,10.3455,1.27071,-0.0323894
145.6,10.5758,1.26679,-0.0312574
148,10.8043,1.27582,-0.03206
150.4,11.0324,1.28631,-0.032089
152.8,11.2636,1.28535,-0.0333918
155.2,11.4949,1.2946,-0.03338
157.6,11.7223,1.30393,-0.03206
160,11.9522,1.30691,-0.0333788
162.4,12.1803,1.31549,-0.0320618
164.8,12.4091,1.33204,-0.0320336
167.2,12.6397,1.33568,-0.0333901
169.6,12.8653,1.33766,-0.03196
172,13.0973,1.34269,-0.0342601
174.4,13.3261,1.34684,-0.0342603
176.8,13.5554,1.35548,-0.03294
179.2,13.7853,1.36593,-0.0336
181.6,14.0133,1.37208,-0.0335939
184,14.2426,1.37252,-0.0342699
186.4,14.4698,1.38162,-0.03393
188.8,14.701,1.37916,-0.0326624
191.2,14.9293,1.38253,-0.0335969
193.6,15.1576,1.39559,-0.0326098
196,15.3857,1.40444,-0.0342592
198.4,15.6135,1.42678,-0.0329501
200.8,15.842,1.46469,-0.03295
203.2,16.0706,1.52109,-0.03427
205.6,16.3008,1.58464,-0.0342599
208,16.5299,1.61682,-0.0347297
210.4,16.756,1.61117,-0.0336
212.8,16.9882,1.57376,-0.0339115
215.2,17.2181,1.53392,-0.0352504
217.6,17.4451,1.52761,-0.0339268
220,17.6728,1.54416,-0.0339288
222.4,17.9039,1.54592,-0.0339367
224.8,18.133,1.54801,-0.0342529
227.2,18.362,1.56174,-0.03492
229.6,18.5898,1.55991,-0.0336281
232,18.8164,1.57366,-0.03459
234.4,19.047,1.57403,-0.0355727
236.8,19.2757,1.57404,-0.03426
239.2,19.5037,1.58514,-0.0335677
241.6,19.7324,1.58194,-0.03459
244,19.9605,1.58324,-0.0345913
246.4,20.1897,1.58396,-0.0349208
248.8,20.419,1.58124,-0.0355227
251.2,20.6472,1.58679,-0.0347565
253.6,20.8761,1.59044,-0.0363556
256,21.1049,1.5831,-0.0360111
258.4,21.3343,1.5848,-0.0354929
260.8,21.5629,1.59528,-0.0356903
263.2,21.7922,1.59099,-0.0347141
265.6,22.021,1.59913,-0.0344303
268,22.2498,1.61249,-0.03634
270.4,22.4791,1.60809,-0.037
272.8,22.7079,1.61023,-0.0379899
275.2,22.9385,1.60915,-0.03733
277.6,23.1669,1.61567,-0.03733
280,23.3971,1.60561,-0.0376601
282.4,23.6266,1.61156,-0.0376599
284.8,23.8566,1.61241,-0.0376729
287.2,24.0863,1.60537,-0.0390656
289.6,24.3165,1.6093,-0.0396522
292,24.547,1.60503,-0.0388261
294.4,24.7767,1.61149,-0.03898
296.8,25.0073,1.60699,-0.0402999
299.2,25.2373,1.60387,-0.0412698
301.6,25.4687,1.60226,-0.0388962
304,25.6995,1.6065,-0.0403
306.4,25.929,1.59441,-0.03931
308.8,26.1609,1.59091,-0.04096
311.2,26.3916,1.60438,-0.0409715
313.6,26.622,1.60577,-0.0426099
316,26.8542,1.59451,-0.0422839
318.4,27.0854,1.59719,-0.04228
320.8,27.3169,1.59224,-0.04228
323.2,27.5482,1.59121,-0.04294
325.6,27.7794,1.58694,-0.0429444
328,28.0111,1.587,-0.0429399
330.4,28.2434,1.57967,-0.0425998
332.8,28.475,1.58239,-0.0439178
335.2,28.7062,1.58339,-0.04425
337.6,28.9377,1.58196,-0.04425
340,29.1701,1.57351,-0.0449352
342.4,29.4024,1.56954,-0.044581
344.8,29.6341,1.5695,-0.04458
347.2,29.8671,1.57029,-0.045934
349.6,30.0983,1.56735,-0.04689
352,30.3316,1.56601,-0.04689
354.4,30.5638,1.57229,-0.0468868
356.8,30.7966,1.56296,-0.0482
359.2,31.0293,1.55888,-0.0478821
361.6,31.2621,1.56387,-0.04919
364,31.4957,1.56831,-0.04919
366.4,31.7273,1.57348,-0.0495189
368.8,31.9627,1.57836,-0.0515005
371.2,32.197,1.56842,-0.0515
373.6,32.4298,1.57785,-0.0522254
376,32.6633,1.58469,-0.05281
378.4,32.8967,1.58213,-0.0528049
380.8,33.1312,1.58637,-0.0534585
383.2,33.3643,1.5882,-0.0533948
385.6,33.5991,1.60197,-0.0554504
388,33.8325,1.6045,-0.05676
390.4,34.0664,1.59082,-0.05676
392.8,34.3011,1.60647,-0.0567701
395.2,34.5353,1.60881,-0.05907
397.6,34.7697,1.614,-0.0594103
400,35.0056,1.61332,-0.0600709
402.4,35.2397,1.6157,-0.0633854
404.8,35.4758,1.62297,-0.06336
407.2,35.7087,1.63587,-0.0633601
409.6,35.9458,1.62895,-0.0653267
412,36.1807,1.62883,-0.0652963
414.4,36.4174,1.63845,-0.0679703
416.8,36.653,1.64286,-0.0699494
419.2,36.8882,1.63996,-0.0732661
421.6,37.1246,1.64142,-0.074561
424,37.3592,1.62223,-0.0771897
426.4,37.5963,1.60263,-0.0798194
428.8,37.8316,1.57873,-0.0824617
431.2,38.0681,1.56416,-0.0858439
433.6,38.3053,1.55763,-0.0903004
436,38.5413,1.54937,-0.0942809
438.4,38.7796,1.54368,-0.101
440.8,39.0158,1.56086,-0.106606
443.2,39.2521,1.55785,-0.112307
445.6,39.4885,1.55213,-0.121104
448,39.7265,1.57527,-0.129467
450.4,39.9628,1.58221,-0.140651
452.8,40.1986,1.59781,-0.150194
455.2,40.4364,1.61669,-0.164169
457.6,40.674,1.63943,-0.179598
460,40.9107,1.65693,-0.194911
462.4,41.1476,1.68474,-0.214328
464.8,41.3846,1.72105,-0.235592
467.2,41.6231,1.73275,-0.261493
469.6,41.8605,1.78495,-0.289491
472,42.0995,1.83618,-0.325589
474.4,42.3373,1.89506,-0.365308
476.8,42.5744,1.95782,-0.415856
479.2,42.814,1.99275,-0.470592
481.6,43.0542,2.09918,-0.534073
484,43.2931,2.17716,-0.612854
486.4,43.5303,2.26071,-0.695104
488.8,43.7712,2.32423,-0.792583
491.2,44.0109,2.39532,-0.902423
493.6,44.2505,2.52405,-1.0221
496,44.4905,2.54326,-1.15917
498.4,44.7302,2.66277,-1.30609
500.8,44.9702,2.62685,-1.46882
503.2,45.2095,2.63145,-1.64441
505.6,45.45,2.77397,-1.83899
508,45.6903,2.71892,-2.05149
510.4,45.9279,2.5607,-2.26615
512.8,46.1646,2.28086,-2.47754
515.2,46.3984,1.88361,-2.67046
517.6,46.6298,1.37381,-2.83241
520,46.8636,0.873294,-2.95569
522.4,47.0961,0.496257,-3.03625
524.8,47.3321,0.312338,-3.08915
527.2,47.569,0.240363,-3.12563
529.6,47.8064,0.23603,-3.15039
532,48.0448,0.242245,-3.16664
534.4,48.2837,0.250925,-3.17771
536.8,48.5243,0.243674,-3.18851
539.2,48.7636,0.243079,-3.19741
541.6,49.0032,0.235004,-3.20319
544,49.2441,0.239145,-3.21013
546.4,49.4845,0.241774,-3.21508
548.8,49.7257,0.239685,-3.22028
551.2,49.967,0.237524,-3.22597
553.6,50.2089,0.234987,-3.22983
556,50.4501,0.217925,-3.23598
558.4,50.6909,0.21597,-3.23924
560.8,50.9324,0.207776,-3.24311
563.2,51.174,0.207153,-3.24848
565.6,51.4139,0.204232,-3.25245
568,51.6552,0.207528,-3.25522
570.4,51.8953,0.197223,-3.25981
572.8,52.1352,0.191456,-3.26409
575.2,52.3758,0.199959,-3.26672
577.6,52.6175,0.199412,-3.26996
580,52.859,0.197978,-3.27269
582.4,53.1009,0.19015,-3.278
584.8,53.3429,0.195225,-3.28023
587.2,53.584,0.203301,-3.28319
589.6,53.8262,0.198042,-3.28579
592,54.069,0.207253,-3.28978
594.4,54.3103,0.21784,-3.29209
596.8,54.5532,0.240374,-3.2934
599.2,54.7948,0.256427,-3.29735
601.6,55.0369,0.271172,-3.29956
604,55.2779,0.288445,-3.30182
606.4,55.5202,0.310051,-3.30393
608.8,55.7615,0.340536,-3.30618
611.2,56.006,0.370802,-3.30873
613.6,56.2472,0.384384,-3.30989
616,56.4901,0.37435,-3.31242
618.4,56.7331,0.377463,-3.31261
620.8,56.975,0.365449,-3.31558
623.2,57.2172,0.369547,-3.31561
625.6,57.4585,0.361196,-3.31948
628,57.7013,0.355227,-3.31952
630.4,57.9431,0.351133,-3.32084
632.8,58.1866,0.34874,-3.3224
635.2,58.4277,0.348625,-3.32341
637.6,58.6697,0.33664,-3.32478
640,58.9129,0.341721,-3.32645
642.4,59.1557,0.328644,-3.32743
644.8,59.3975,0.321188,-3.32843
647.2,59.6394,0.314864,-3.32877
649.6,59.8826,0.292491,-3.32974
652,60.1206,0.278353,-3.33103
654.4,60.3655,0.269456,-3.33103
656.8,60.6074,0.262425,-3.33107
659.2,60.8497,0.260911,-3.33369
661.6,61.0919,0.250612,-3.33399
664,61.3352,0.239395,-3.33567
666.4,61.5767,0.229936,-3.33633
668.8,61.8199,0.219359,-3.33731
671.2,62.0614,0.213271,-3.33897
673.6,62.3034,0.201647,-3.33961
676,62.5464,0.194624,-3.34028
678.4,62.7872,0.183447,-3.34159
680.8,63.0288,0.167076,-3.34292
683.2,63.27,0.159933,-3.34291
685.6,63.5122,0.153354,-3.34291
688,63.755,0.139377,-3.34423
690.4,63.9984,0.134811,-3.34458
692.8,64.2409,0.117438,-3.34521
695.2,64.4844,0.111994,-3.34585
697.6,64.7269,0.0973315,-3.3472
700,64.9717,0.0897061,-3.34949
702.4,65.2168,0.0793415,-3.3482
704.8,65.4604,0.066419,-3.34814
707.2,65.7042,0.0639077,-3.35078
709.6,65.9487,0.0670663,-3.35016
712,66.1936,0.0589466,-3.35147
714.4,66.437,0.06376,-3.35084
716.8,66.6819,0.0475207,-3.3528
719.2,66.9275,0.0451527,-3.35181
721.6,67.1733,0.042189,-3.35446
724,67.4193,0.0373409,-3.35411
726.4,67.6633,0.0328372,-3.35477
728.8,67.9084,0.0341991,-3.35544
731.2,68.1532,0.0332868,-3.35575
733.6,68.398,0.0297494,-3.35708
736,68.6444,0.0325149,-3.35675
738.4,68.89,0.0548774,-3.35807
740,69.054,0.0373665,-3.3581

File: NFPA_1981-2019_SCBA_Lens_STA_N2_10KData_241112_R1.csv
Temp./C,Time/min,DSC/(mW/mg),Mass loss/mg
35.0,0.0,0.724444,0.0198263
37.6,0.303108,0.778967,0.0181666
40.2,0.59772,0.814431,0.0184134
42.8,0.88531,0.842117,0.0190062
45.4,1.16844,0.864408,0.018114
48,1.45011,0.879711,0.0170199
50.6,1.72718,0.91021,0.0185763
53.2,2.00072,0.932041,0.0172397
55.8,2.27128,0.946428,0.01767
58.4,2.54101,0.974446,0.01932
61,2.80738,1.00134,0.0165858
63.6,3.07245,1.00433,0.0165685
66.2,3.33483,1.02851,0.0173063
68.8,3.59716,1.03515,0.0183399
71.4,3.85729,1.05387,0.0211903
74,4.11727,1.05981,0.0169
76.6,4.37585,1.07581,0.01647
79.2,4.6346,1.07941,0.0183292
81.8,4.8933,1.08173,0.01834
84.4,5.15026,1.10738,0.0181073
87,5.40714,1.10882,0.01602
89.6,5.66281,1.12377,0.0187802
92.2,5.91765,1.13828,0.0165385
94.8,6.17096,1.15187,0.0174543
97.4,6.42685,1.17334,0.0182305
100,6.67877,1.18699,0.0161372
102.6,6.93246,1.19693,0.0166892
105.2,7.18055,1.20998,0.01811
107.8,7.43659,1.22179,0.0170086
110.4,7.68714,1.23369,0.0178897
113,7.94224,1.24862,0.0179992
115.6,8.19514,1.25201,0.01658
118.2,8.44674,1.26828,0.0165755
120.8,8.69873,1.28497,0.01811
123.4,8.94907,1.29684,0.01811
126,9.20055,1.31437,0.0170532
128.6,9.45073,1.33749,0.0171685
131.2,9.70153,1.34282,0.01844
133.8,9.94966,1.347,0.0173543
136.4,10.2026,1.35834,0.01602
139,10.4525,1.36593,0.0148739
141.6,10.7012,1.37947,0.0174596
144.2,10.9496,1.39815,0.01888
146.8,11.1988,1.40519,0.0158251
149.4,11.4473,1.41195,0.014067
152,11.6956,1.41861,0.015041
154.6,11.9433,1.43762,0.01713
157.2,12.1917,1.45946,0.0173686
159.8,12.4393,1.46201,0.0147099
162.4,12.6847,1.46016,0.01723
165,12.9336,1.47729,0.0149202
167.6,13.1805,1.48765,0.0171408
170.2,13.4276,1.49342,0.01449
172.8,13.6747,1.50836,0.0160262
175.4,13.9227,1.52633,0.0157
178,14.1697,1.52996,0.0129511
180.6,14.415,1.53503,0.0130614
183.2,14.6617,1.54929,0.01438
185.8,14.909,1.56162,0.0128124
188.4,15.1557,1.56071,0.01624
191,15.4015,1.56291,0.01493
193.6,15.6481,1.57847,0.0160376
196.2,15.8945,1.58958,0.01339
198.8,16.1407,1.60681,0.0173522
201.4,16.3887,1.6457,0.01372
204,16.6354,1.6973,0.01438
206.6,16.8827,1.7654,0.0147098
209.2,17.1301,1.81181,0.0169806
211.8,17.3768,1.81024,0.014728
214.4,17.6233,1.81035,0.013537
217,17.87,1.80631,0.01351
219.6,18.1175,1.81992,0.0162498
222.2,18.3629,1.81609,0.0152695
224.8,18.6065,1.8284,0.01252
227.4,18.8553,1.84028,0.014467
230,19.1008,1.8428,0.0136099
232.6,19.3467,1.84192,0.0149358
235.2,19.594,1.85,0.01372
237.8,19.8393,1.84551,0.0144335
240.4,20.0861,1.84647,0.0133638
243,20.3319,1.86175,0.014356
245.6,20.5787,1.85564,0.01471
248.2,20.8242,1.85683,0.0140527
250.8,21.0704,1.86749,0.0143776
253.4,21.3177,1.87106,0.0128381
256,21.5629,1.86305,0.0132955
258.6,21.8086,1.86398,0.01394
261.2,22.0559,1.86612,0.011613
263.8,22.3027,1.86387,0.0130715
266.4,22.5501,1.86727,0.01317
269,22.7979,1.87287,0.01317
271.6,23.0439,1.87085,0.01186
274.2,23.2925,1.87002,0.0142796
276.8,23.5398,1.87648,0.01328
279.4,23.7865,1.88544,0.012177
282,24.0327,1.88211,0.0121869
284.6,24.2805,1.88603,0.0121583
287.2,24.5279,1.88292,0.01284
289.8,24.7754,1.88295,0.0133902
292.4,25.0219,1.88693,0.0165052
295,25.2704,1.87954,0.0118866
297.6,25.5185,1.88528,0.0134
300.2,25.7661,1.87127,0.0120832
302.8,26.0136,1.87674,0.0150427
305.4,26.2629,1.87109,0.0123269
308,26.5108,1.86818,0.01362
310.6,26.7593,1.88341,0.01175
313.2,27.007,1.87852,0.0117319
315.8,27.2557,1.87893,0.0115912
318.4,27.5039,1.88884,0.0131815
321,27.7531,1.88258,0.0119595
323.6,28.0008,1.89001,0.0136846
326.2,28.2499,1.88262,0.01317
328.8,28.4971,1.87557,0.0117495
331.4,28.7484,1.86997,0.0117431
334,28.9975,1.88081,0.01031
336.6,29.2494,1.87329,0.0119938
339.2,29.4977,1.86868,0.0117733
341.8,29.7468,1.86617,0.0124065
344.4,29.997,1.86357,0.01229
347,30.2481,1.86704,0.00965008
349.6,30.4978,1.85326,0.00954996
352.2,30.7487,1.85598,0.00955484
354.8,30.9987,1.8456,0.00867
357.4,31.2496,1.84077,0.00968608
360,31.5002,1.841,0.0094005
362.6,31.7501,1.82853,0.00935702
365.2,32.0006,1.82453,0.0103332
367.8,32.2511,1.82511,0.0108721
370.4,32.5023,1.81223,0.00527
373,32.7533,1.81051,0.00680993
375.6,33.0036,1.80712,0.00812016
378.2,33.2535,1.80058,0.00705255
380.8,33.5064,1.79818,0.00780176
383.4,33.7585,1.79611,0.00461
386,34.0102,1.78855,0.00395096
388.6,34.2626,1.78342,0.00592
391.2,34.5138,1.78348,0.0033
393.8,34.7657,1.77637,0.00187005
396.4,35.0181,1.76767,0.00361888
399,35.2704,1.76781,0.0023
401.6,35.5227,1.75213,-0.00287459
404.2,35.7761,1.76277,0.000288367
406.8,36.0292,1.74916,-0.0021784
409.4,36.282,1.74083,-0.0055983
412,36.5343,1.73499,-0.00583013
414.6,36.7867,1.73097,-0.00714
417.2,37.0395,1.73012,-0.00846272
419.8,37.292,1.73859,-0.00988
422.4,37.5456,1.7623,-0.011745
425,37.7978,1.80915,-0.0144053
427.6,38.0518,1.85559,-0.0183436
430.2,38.305,1.93092,-0.023487
432.8,38.5599,2.1208,-0.0253451
435.4,38.813,2.19254,-0.0287619
438,39.067,2.26025,-0.0344726
440.6,39.322,2.33672,-0.0392835
443.2,39.5768,2.39734,-0.0464637
445.8,39.8324,2.44122,-0.05028
448.4,40.0871,2.42606,-0.0667413
451,40.3419,2.33407,-0.0743298
453.6,40.5977,2.21218,-0.0882188
456.2,40.853,2.13557,-0.103147
458.8,41.1074,1.93293,-0.116042
461.4,41.3623,1.83409,-0.132826
464,41.6169,1.82247,-0.149844
466.6,41.8722,1.83999,-0.180104
469.2,42.128,1.84654,-0.201891
471.8,42.3818,1.88108,-0.241741
474.4,42.6409,1.93611,-0.278726
477,42.8956,1.96268,-0.328933
479.6,43.153,2.04233,-0.382428
482.2,43.4092,2.14478,-0.445979
484.8,43.6642,2.16434,-0.518524
487.4,43.9198,2.26986,-0.599674
490,44.1757,2.33885,-0.690011
492.6,44.4341,2.43868,-0.805551
495.2,44.6908,2.52607,-0.923692
497.8,44.9486,2.56191,-1.05674
500.4,45.2063,2.58666,-1.20588
503,45.4655,2.66524,-1.36499
505.6,45.7243,2.71913,-1.5502
508.2,45.9823,2.72695,-1.75218
510.8,46.2393,2.68716,-1.96797
513.4,46.4958,2.52153,-2.19667
516,46.749,2.22134,-2.40797
518.6,47.0003,1.76759,-2.60066
521.2,47.2519,1.27337,-2.75795
523.8,47.5037,0.846783,-2.86721
526.4,47.7562,0.593836,-2.93139
529,48.0119,0.494905,-2.98093
531.6,48.2687,0.46228,-3.00822
534.2,48.523,0.463845,-3.02987
536.8,48.7814,0.482837,-3.04932
539.4,49.0386,0.493963,-3.05766
542,49.2974,0.618053,-3.06971
544.6,49.5551,0.747812,-3.07775
547.2,49.813,0.81399,-3.08674
549.8,50.0707,0.856265,-3.09291
552.4,50.3305,0.87013,-3.09759
555,50.59,0.857016,-3.10497
557.6,50.849,0.828412,-3.11302
560.2,51.1073,0.803611,-3.11784
562.8,51.3655,0.773014,-3.12172
565.4,51.6243,0.759272,-3.12439
568,51.8828,0.736269,-3.13596
570.6,52.142,0.711922,-3.14058
573.2,52.402,0.700413,-3.14638
575.8,52.6614,0.694747,-3.14213
578.4,52.9207,0.672251,-3.1534
581,53.1803,0.638277,-3.15474
583.6,53.4399,0.601547,-3.16036
586.2,53.6978,0.479387,-3.16257
588.8,53.9582,0.292075,-3.16613
591.4,54.217,0.174883,-3.17054
594,54.4772,0.0929765,-3.1775
596.6,54.7379,0.0293753,-3.17868
599.2,54.9974,-0.0188061,-3.1788
601.8,55.2584,-0.067176,-3.18612
604.4,55.5182,-0.108194,-3.18896
607,55.7792,-0.113388,-3.19009
609.6,56.0389,-0.153968,-3.18945
612.2,56.3002,-0.206383,-3.19471
614.8,56.5608,-0.260197,-3.19835
617.4,56.8226,-0.3213,-3.19876
620,57.084,-0.356514,-3.20554
622.6,57.3455,-0.384609,-3.20226
625.2,57.6086,-0.380246,-3.20163
627.8,57.8715,-0.370083,-3.20454
630.4,58.1342,-0.350764,-3.20891
633,58.3956,-0.33995,-3.21016
635.6,58.6572,-0.332336,-3.21203
638.2,58.9198,-0.309615,-3.2092
640.8,59.1807,-0.305165,-3.21587
643.4,59.4422,-0.283603,-3.21692
646,59.7064,-0.270448,-3.21792
648.6,59.9681,-0.252006,-3.21744
651.2,60.231,-0.232301,-3.21859
653.8,60.4937,-0.229512,-3.22302
656.4,60.7559,-0.221747,-3.22348
659,61.0183,-0.207551,-3.22279
661.6,61.2811,-0.205177,-3.22461
664.2,61.5444,-0.202383,-3.22895
666.8,61.8065,-0.198839,-3.22631
669.4,62.0691,-0.194165,-3.22908
672,62.3306,-0.188559,-3.23004
674.6,62.5954,-0.19056,-3.23479
677.2,62.8586,-0.196353,-3.23169
679.8,63.1219,-0.197167,-3.23102
682.4,63.3848,-0.194429,-3.2339
685,63.6469,-0.193157,-3.23243
687.6,63.9118,-0.190567,-3.23726
690.2,64.1753,-0.209456,-3.23853
692.8,64.4377,-0.228409,-3.23854
695.4,64.7012,-0.240327,-3.23733
698,64.9653,-0.261628,-3.23493
700.6,65.2286,-0.269962,-3.24277
703.2,65.4925,-0.289098,-3.23969
705.8,65.7556,-0.304394,-3.24055
708.4,66.0203,-0.335658,-3.24351
711,66.2831,-0.336227,-3.24027
713.6,66.5463,-0.349926,-3.24404
716.2,66.8108,-0.374493,-3.24599
718.8,67.0751,-0.378268,-3.24838
721.4,67.3396,-0.391529,-3.2441
724,67.6038,-0.402976,-3.24859
726.6,67.8668,-0.427,-3.2516
729.2,68.1325,-0.438824,-3.24969
731.8,68.3935,-0.444277,-3.25048
734.4,68.6602,-0.450143,-3.24743
737,68.9254,-0.455444,-3.2537
739.6,69.1892,-0.459276,-3.25425
742.2,69.4535,-0.467062,-3.25279
744.8,69.7182,-0.464837,-3.25304
747.4,69.9843,-0.458393,-3.25759
750,70.2476,-0.467639,-3.2532
752.6,70.5136,-0.470759,-3.25561
755.2,70.7797,-0.479645,-3.25408
757.8,71.0443,-0.463157,-3.25574
760.4,71.3064,-0.456512,-3.2553
763,71.5753,-0.450725,-3.25869
765.6,71.8392,-0.431044,-3.25345
768.2,72.1037,-0.427789,-3.25889
770.8,72.3683,-0.432685,-3.26132
773.4,72.6328,-0.425177,-3.26179
776,72.8963,-0.436047,-3.25768
778.6,73.1618,-0.427934,-3.26463
781.2,73.4265,-0.416067,-3.26034
783.8,73.6913,-0.409742,-3.26207
786.4,73.957,-0.415721,-3.25712
789,74.2214,-0.415445,-3.26315
790,74.323,-0.416488,-3.2645