Folder: fsri_materials_database/01_Data/NFPA_1981-2019_SCBA_Lens/STA/N2/30K_min

File: NFPA_1981-2019_SCBA_Lens_STA_N2_30KData_241112_R1.csv
Temp./C,Time/min,DSC/(mW/mg),Mass loss/mg
35.0,0.0,1.27834,0.00184971
37.6,0.13167,1.50147,-0.000558921
40.2,0.251853,1.68139,0.00211474
42.8,0.364203,1.83651,0.00143272
45.4,0.471625,1.97095,0.00316856
48,0.574973,2.09123,0.000195266
50.6,0.675708,2.18275,-0.000425746
53.2,0.772735,2.27491,9.56855e-05
55.8,0.868912,2.35479,-0.00163537
58.4,0.963692,2.42848,-0.000810079
61,1.05646,2.49192,-0.000978121
63.6,1.14856,2.56612,-0.00058118
66.2,1.23991,2.61171,0.00252411
68.8,1.33067,2.66745,0.00383068
71.4,1.42101,2.70616,0.00378976
74,1.51064,2.75265,0.000445835
76.6,1.59945,2.78617,-0.00274146
79.2,1.68864,2.8035,-0.00267754
81.8,1.77759,2.83653,0.000179402
84.4,1.86524,2.84974,-0.00225672
87,1.95356,2.86786,-0.00307939
89.6,2.04066,2.89366,-0.00286993
92.2,2.12723,2.91401,-0.000520946
94.8,2.2137,2.95042,0.000979436
97.4,2.29974,2.99013,0.00310559
100,2.38581,3.02868,0.00559955
102.6,2.47091,3.06008,0.00472875
105.2,2.55601,3.08687,0.00264007
107.8,2.64135,3.1172,0.000916088
110.4,2.72583,3.14545,-0.00318472
113,2.81073,3.19337,-0.000504144
115.6,2.89588,3.21537,-0.00151637
118.2,2.97986,3.25297,-0.00286885
120.8,3.06385,3.28589,-0.00128036
123.4,3.14809,3.32383,-0.00274786
126,3.23091,3.36684,-0.00357911
128.6,3.31516,3.39373,-0.00274113
131.2,3.39815,3.42964,-0.00545214
133.8,3.48065,3.47548,0.00219503
136.4,3.56348,3.51021,0.00388802
139,3.64539,3.54311,0.00289979
141.6,3.72696,3.57919,0.000992488
144.2,3.80884,3.60477,-0.000556834
146.8,3.88988,3.63484,-0.000557499
149.4,3.97091,3.66287,-0.0034906
152,4.05165,3.69269,-0.00376194
154.6,4.13183,3.72575,-0.00450118
157.2,4.21297,3.75651,-0.00350997
159.8,4.29306,3.78537,-0.00350977
162.4,4.3738,3.81615,-0.00213135
165,4.4538,3.84807,-0.000650312
167.6,4.53371,3.88038,-0.000873039
170.2,4.6135,3.9164,-0.000870014
172.8,4.69354,3.94087,0.00191256
175.4,4.77332,3.97152,0.00324423
178,4.85304,4.00229,-0.000650024
180.6,4.93194,4.03026,-0.00065
183.2,5.01155,4.0353,-0.000650004
185.8,5.09045,4.0599,-0.00411856
188.4,5.16909,4.08376,-0.00559029
191,5.2479,4.09663,-0.00563427
193.6,5.32613,4.13071,-0.00658151
196.2,5.40504,4.1633,-0.00406228
198.8,5.48361,4.19407,-0.0014088
201.4,5.56185,4.25011,-0.00134002
204,5.64024,4.31286,-0.000874051
206.6,5.71873,4.40603,0.000461364
209.2,5.7975,4.54294,-8.48884e-05
211.8,5.87635,4.65952,-0.00138207
214.4,5.95443,4.72619,-0.00229767
217,6.0325,4.75167,-0.00248767
219.6,6.1111,4.77916,-0.0023
222.2,6.18909,4.81074,-0.0023
224.8,6.26722,4.82128,-0.00217544
227.4,6.34523,4.85189,-0.00231527
230,6.42345,4.86275,-0.00263575
232.6,6.50131,4.87992,-0.00231529
235.2,6.57938,4.89636,-0.00283473
237.8,6.65712,4.908,-0.0023
240.4,6.73501,4.91843,-0.00229988
243,6.81265,4.92848,-0.00460036
245.6,6.89049,4.94732,-0.00328
248.2,6.96829,4.95048,-0.00328
250.8,7.04534,4.96118,-0.00328
253.4,7.1238,4.97291,-0.00328
256,7.20143,4.97796,-0.00328
258.6,7.27927,4.97989,-0.0042713
261.2,7.35637,4.99119,-0.00427002
263.8,7.43454,5.0028,-0.00234559
266.4,7.51235,5.01438,-0.00101923
269,7.58992,5.015,0.000555309
271.6,7.66778,5.02686,-0.00196087
274.2,7.74539,5.03867,-0.00197
276.8,7.82329,5.04575,-0.00328028
279.4,7.90089,5.04843,-0.00328084
282,7.97868,5.05352,-0.0048363
284.6,8.05639,5.06437,-0.00161455
287.2,8.13452,5.06792,-0.00197021
289.8,8.21241,5.06947,-0.00602949
292.4,8.29023,5.07109,-0.00449928
295,8.36818,5.06181,-0.00297507
297.6,8.44644,5.06887,-0.00294103
300.2,8.52445,5.05803,-0.00289344
302.8,8.60244,5.04588,-0.00262678
305.4,8.68038,5.03924,-0.00263
308,8.75881,5.0315,-0.00130584
310.6,8.83658,5.02137,-0.00239458
313.2,8.91483,5.01743,-0.00241561
315.8,8.99318,5.00558,-0.00406344
318.4,9.07124,4.99886,-0.00405678
321,9.14956,4.98829,-0.00538406
323.6,9.22789,4.98251,-0.00669
326.2,9.30621,4.97894,-0.00445519
328.8,9.38478,4.97035,-0.00369318
331.4,9.46302,4.97055,-0.00577289
334,9.54115,4.95827,-0.00582
336.6,9.61977,4.94901,-0.00733186
339.2,9.69768,4.94251,-0.00701997
341.8,9.77692,4.92737,-0.00574876
344.4,9.85573,4.9285,-0.00834
347,9.93466,4.91526,-0.00834003
349.6,10.0133,4.9084,-0.00843451
352.2,10.0918,4.88987,-0.0081095
354.8,10.1713,4.87458,-0.005481
357.4,10.2504,4.88071,-0.00631208
360,10.329,4.86028,-0.00647
362.6,10.4083,4.85287,-0.00745821
365.2,10.4877,4.8433,-0.00786699
367.8,10.5671,4.83555,-0.00779373
370.4,10.6465,4.82639,-0.010418
373,10.7261,4.81957,-0.00789287
375.6,10.8057,4.80568,-0.00762338
378.2,10.8856,4.79078,-0.00614
380.8,10.9648,4.78528,-0.00744449
383.4,11.0447,4.77093,-0.00756409
386,11.1247,4.76033,-0.00888
388.6,11.2037,4.76074,-0.00767823
391.2,11.2843,4.74788,-0.00921
393.8,11.3646,4.72834,-0.00921009
396.4,11.4442,4.7205,-0.00891744
399,11.5251,4.70628,-0.00958731
401.6,11.6049,4.68512,-0.01053
404.2,11.6854,4.67593,-0.01053
406.8,11.7659,4.64293,-0.01054
409.4,11.8463,4.61394,-0.01054
412,11.9266,4.59225,-0.01054
414.6,12.0073,4.58251,-0.0123483
417.2,12.0879,4.56085,-0.01317
419.8,12.1687,4.53875,-0.0131856
422.4,12.2493,4.521,-0.0144815
425,12.3301,4.49559,-0.0144852
427.6,12.4108,4.48713,-0.0164571
430.2,12.4916,4.45749,-0.01953
432.8,12.5723,4.43929,-0.0209329
435.4,12.6535,4.41467,-0.0251304
438,12.7343,4.39366,-0.0227099
440.6,12.8155,4.3681,-0.0255692
443.2,12.8963,4.34585,-0.0230952
445.8,12.9772,4.33754,-0.0259004
448.4,13.0582,4.34117,-0.0287395
451,13.1395,4.40018,-0.0307189
453.6,13.2212,4.56543,-0.0320501
456.2,13.304,4.99329,-0.0337734
458.8,13.3863,5.30825,-0.0382912
461.4,13.4682,5.54568,-0.042996
464,13.5503,5.76292,-0.0488
466.6,13.6322,6.00342,-0.0540247
469.2,13.7145,6.21552,-0.0588281
471.8,13.7968,6.37563,-0.0660517
474.4,13.8791,6.34309,-0.0735149
477,13.9619,6.3004,-0.0829095
479.6,14.0447,6.09027,-0.0959277
482.2,14.1277,5.54555,-0.109171
484.8,14.2109,5.22964,-0.121411
487.4,14.2943,5.10909,-0.137413
490,14.3771,5.02665,-0.158866
492.6,14.4605,5.01371,-0.177502
495.2,14.5439,5.04087,-0.197897
497.8,14.6274,5.09286,-0.223887
500.4,14.7109,5.19476,-0.258043
503,14.7944,5.28723,-0.293457
505.6,14.8783,5.39616,-0.337066
508.2,14.9621,5.59653,-0.387538
510.8,15.0467,5.81185,-0.452441
513.4,15.1309,5.99217,-0.528237
516,15.2157,6.20119,-0.606975
518.6,15.2997,6.3945,-0.704896
521.2,15.3843,6.50571,-0.810072
523.8,15.469,6.70427,-0.934944
526.4,15.5539,6.90179,-1.06991
529,15.6382,6.97133,-1.21858
531.6,15.7225,6.98939,-1.38957
534.2,15.8067,6.95522,-1.57261
536.8,15.8906,6.82618,-1.77777
539.4,15.9744,6.51026,-2.00946
542,16.0571,5.92832,-2.23114
544.6,16.1382,5.05068,-2.44761
547.2,16.2186,3.90642,-2.64227
549.8,16.2983,2.61912,-2.80163
552.4,16.3779,1.45891,-2.92741
555,16.4587,0.636194,-3.0151
557.6,16.5403,0.20334,-3.0715
560.2,16.6231,0.0727678,-3.10909
562.8,16.707,0.0539519,-3.13794
565.4,16.7913,0.103662,-3.15844
568,16.8757,0.134246,-3.1733
570.6,16.9602,0.152652,-3.18432
573.2,17.045,0.184982,-3.19596
575.8,17.1297,0.223236,-3.20414
578.4,17.2146,0.301606,-3.21284
581,17.2991,0.468189,-3.21921
583.6,17.3847,0.667725,-3.22583
586.2,17.4698,0.872661,-3.23071
588.8,17.5547,1.03068,-3.23596
591.4,17.6393,1.14372,-3.242
594,17.725,1.23036,-3.24715
596.6,17.8104,1.2913,-3.25255
599.2,17.896,1.31489,-3.25802
601.8,17.9807,1.30166,-3.26411
604.4,18.067,1.28151,-3.26713
607,18.1528,1.25781,-3.27188
609.6,18.2381,1.24583,-3.27559
612.2,18.3239,1.20885,-3.28084
614.8,18.4094,1.16842,-3.28807
617.4,18.4956,1.13004,-3.2905
620,18.5818,1.06341,-3.29219
622.6,18.6666,0.925076,-3.29333
625.2,18.7532,0.773733,-3.29904
627.8,18.839,0.534341,-3.30318
630.4,18.9242,0.173438,-3.30724
633,19.0098,-0.159055,-3.31033
635.6,19.0957,-0.452948,-3.31354
638.2,19.1819,-0.705095,-3.3157
640.8,19.268,-0.849343,-3.31801
643.4,19.3545,-0.988685,-3.31949
646,19.4412,-1.11372,-3.32348
648.6,19.5278,-1.19552,-3.32685
651.2,19.6145,-1.25652,-3.32751
653.8,19.7011,-1.32769,-3.32465
656.4,19.7878,-1.38186,-3.32747
659,19.8747,-1.42521,-3.32762
661.6,19.9613,-1.44687,-3.33028
664.2,20.0481,-1.43864,-3.33158
666.8,20.1349,-1.41863,-3.33311
669.4,20.2214,-1.40007,-3.33311
672,20.3084,-1.37328,-3.33443
674.6,20.3958,-1.36031,-3.33575
677.2,20.483,-1.34411,-3.3386
679.8,20.5698,-1.33672,-3.3386
682.4,20.6571,-1.31998,-3.34178
685,20.7442,-1.32346,-3.34041
687.6,20.8314,-1.31742,-3.33985
690.2,20.9184,-1.30166,-3.33904
692.8,21.0056,-1.30085,-3.34387
695.4,21.093,-1.29073,-3.34773
698,21.1804,-1.29573,-3.35194
700.6,21.2675,-1.2903,-3.35068
703.2,21.355,-1.28691,-3.34827
705.8,21.4426,-1.2896,-3.34991
708.4,21.5299,-1.29904,-3.35122
711,21.6175,-1.31438,-3.35276
713.6,21.705,-1.34484,-3.35487
716.2,21.7928,-1.36227,-3.35496
718.8,21.8808,-1.39466,-3.35496
721.4,21.9683,-1.41672,-3.3554
724,22.0559,-1.46042,-3.35672
726.6,22.1438,-1.49835,-3.35968
729.2,22.2315,-1.53909,-3.35839
731.8,22.3196,-1.57714,-3.35803
734.4,22.4074,-1.62937,-3.35935
737,22.4953,-1.66141,-3.35957
739.6,22.5832,-1.71745,-3.36153
742.2,22.6705,-1.77422,-3.36572
744.8,22.7588,-1.81877,-3.36922
747.4,22.847,-1.87055,-3.36846
750,22.9353,-1.90666,-3.36846
752.6,23.0232,-1.95655,-3.37176
755.2,23.1114,-1.9931,-3.36692
757.8,23.1992,-2.03064,-3.36871
760.4,23.2876,-2.06761,-3.36868
763,23.376,-2.10424,-3.36967
765.6,23.4641,-2.12279,-3.36903
768.2,23.5523,-2.13701,-3.37207
770.8,23.641,-2.1338,-3.37064
773.4,23.7294,-2.1348,-3.37188
776,23.818,-2.15416,-3.37126
778.6,23.9065,-2.15451,-3.3738
781.2,23.9947,-2.1514,-3.37461
783.8,24.0835,-2.15647,-3.37742
786.4,24.1721,-2.14095,-3.37735
789,24.2608,-2.13782,-3.37735
790,24.2947,-2.13794,-3.37603

File: NFPA_1981-2019_SCBA_Lens_STA_N2_30KData_250908_R2.csv
Temp./C,Time/min,DSC/(mW/mg),Mass loss/mg
40,0,9.92E-01,-1.41E-02
42.6,0.159517,1.19E+00,-1.66E-02
45.2,0.305836,1.36E+00,-1.77E-02
47.8,0.440557,1.49E+00,-1.74E-02
50.4,0.567298,1.61E+00,-1.51E-02
53,0.689191,1.72E+00,-1.41E-02
55.6,0.806299,1.81E+00,-1.20E-02
58.2,0.91998,1.90E+00,-8.56E-03
60.8,1.03016,1.99E+00,-7.07E-03
63.4,1.13817,2.07E+00,-6.51E-03
66,1.244,2.13E+00,-4.47E-03
68.6,1.34776,2.19E+00,-3.68E-03
71.2,1.45064,2.25E+00,-1.83E-03
73.8,1.55168,2.31E+00,-7.11E-04
76.4,1.65206,2.37E+00,-1.81E-03
79,1.75203,2.42E+00,-6.03E-04
81.6,1.85002,2.49E+00,3.08E-03
84.2,1.94734,2.55E+00,2.48E-03
86.8,2.04365,2.60E+00,3.02E-03
89.4,2.13801,2.64E+00,1.98E-03
92,2.23149,2.69E+00,3.46E-03
94.6,2.32488,2.73E+00,3.78E-03
97.2,2.41646,2.76E+00,4.38E-03
99.8,2.50775,2.78E+00,5.22E-03
102.4,2.59827,2.82E+00,5.83E-03
105,2.68917,2.88E+00,3.26E-03
107.6,2.77821,2.92E+00,4.96E-03
110.2,2.86755,2.96E+00,5.25E-03
112.8,2.95637,3.00E+00,5.40E-03
115.4,3.04499,3.05E+00,5.46E-03
118,3.13288,3.10E+00,5.47E-03
120.6,3.22077,3.13E+00,5.32E-03
123.2,3.30786,3.20E+00,5.06E-03
125.8,3.39445,3.23E+00,4.76E-03
128.4,3.48087,3.28E+00,4.15E-03
131,3.56578,3.32E+00,6.31E-03
133.6,3.65081,3.38E+00,7.09E-03
136.2,3.73511,3.43E+00,6.48E-03
138.8,3.81942,3.46E+00,4.09E-03
141.4,3.90318,3.50E+00,5.84E-03
144,3.98663,3.54E+00,6.60E-03
146.6,4.06905,3.58E+00,6.88E-03
149.2,4.15181,3.63E+00,6.15E-03
151.8,4.2339,3.66E+00,6.55E-03
154.4,4.31546,3.70E+00,6.91E-03
157,4.39723,3.73E+00,6.90E-03
159.6,4.47844,3.77E+00,6.17E-03
162.2,4.56012,3.81E+00,4.85E-03
164.8,4.64117,3.86E+00,6.45E-03
167.4,4.72191,3.88E+00,6.63E-03
170,4.80233,3.92E+00,6.79E-03
172.6,4.88284,3.96E+00,6.92E-03
175.2,4.96335,3.99E+00,6.99E-03
177.8,5.0433,4.04E+00,7.06E-03
180.4,5.12297,4.05E+00,7.13E-03
183,5.20239,4.09E+00,7.11E-03
185.6,5.28168,4.13E+00,7.08E-03
188.2,5.3606,4.16E+00,8.41E-03
190.8,5.43982,4.19E+00,8.40E-03
193.4,5.51833,4.23E+00,6.98E-03
196,5.59709,4.28E+00,6.93E-03
198.6,5.67533,4.34E+00,6.88E-03
201.2,5.75362,4.41E+00,5.44E-03
203.8,5.83256,4.52E+00,6.10E-03
206.4,5.91116,4.67E+00,6.59E-03
209,5.98908,4.79E+00,6.44E-03
211.6,6.06723,4.85E+00,6.28E-03
214.2,6.14493,4.90E+00,6.12E-03
216.8,6.22276,4.93E+00,5.98E-03
219.4,6.30101,4.96E+00,5.87E-03
222,6.37835,4.98E+00,7.02E-03
224.6,6.45542,5.01E+00,6.90E-03
227.2,6.53314,5.03E+00,5.47E-03
229.8,6.61057,5.06E+00,6.64E-03
232.4,6.68875,5.08E+00,6.45E-03
235,6.76584,5.12E+00,6.33E-03
237.6,6.84358,5.15E+00,6.18E-03
240.2,6.92095,5.20E+00,5.97E-03
242.8,6.99815,5.24E+00,5.77E-03
245.4,7.07542,5.26E+00,5.79E-03
248,7.15252,5.30E+00,6.72E-03
250.6,7.23013,5.31E+00,5.86E-03
253.2,7.30703,5.33E+00,5.68E-03
255.8,7.38424,5.35E+00,5.49E-03
258.4,7.46135,5.37E+00,6.61E-03
261,7.53817,5.38E+00,5.33E-03
263.6,7.61551,5.41E+00,5.16E-03
266.2,7.69168,5.43E+00,6.29E-03
268.8,7.76943,5.44E+00,6.04E-03
271.4,7.84638,5.46E+00,5.80E-03
274,7.92352,5.47E+00,4.34E-03
276.6,8.00057,5.50E+00,6.10E-03
279.2,8.07768,5.51E+00,6.53E-03
281.8,8.15462,5.53E+00,6.32E-03
284.4,8.23206,5.53E+00,6.14E-03
287,8.30924,5.54E+00,5.93E-03
289.6,8.38631,5.56E+00,6.65E-03
292.2,8.46355,5.56E+00,6.41E-03
294.8,8.54096,5.58E+00,6.16E-03
297.4,8.61785,5.58E+00,5.91E-03
300,8.69543,5.59E+00,5.66E-03
302.6,8.77253,5.58E+00,5.77E-03
305.2,8.84973,5.58E+00,6.06E-03
307.8,8.92704,5.59E+00,6.62E-03
310.4,9.00444,5.60E+00,6.39E-03
313,9.08146,5.60E+00,6.19E-03
315.6,9.15876,5.61E+00,5.98E-03
318.2,9.2363,5.60E+00,5.72E-03
320.8,9.3137,5.61E+00,5.42E-03
323.4,9.39124,5.63E+00,5.13E-03
326,9.4685,5.62E+00,6.11E-03
328.6,9.54638,5.63E+00,5.75E-03
331.2,9.62318,5.63E+00,5.40E-03
333.8,9.70099,5.63E+00,5.04E-03
336.4,9.77861,5.63E+00,4.66E-03
339,9.85645,5.62E+00,4.31E-03
341.6,9.93431,5.63E+00,3.96E-03
344.2,10.0119,5.63E+00,3.61E-03
346.8,10.0897,5.63E+00,4.63E-03
349.4,10.1677,5.63E+00,4.33E-03
352,10.2459,5.65E+00,2.61E-03
354.6,10.324,5.64E+00,2.42E-03
357.2,10.4022,5.64E+00,3.17E-03
359.8,10.4804,5.63E+00,2.79E-03
362.4,10.5588,5.63E+00,2.39E-03
365,10.6373,5.63E+00,1.99E-03
367.6,10.7157,5.62E+00,1.60E-03
370.2,10.7943,5.62E+00,5.84E-04
372.8,10.873,5.61E+00,2.36E-04
375.4,10.9517,5.61E+00,-1.30E-04
378,11.0305,5.60E+00,8.29E-04
380.6,11.1091,5.59E+00,1.26E-03
383.2,11.1882,5.59E+00,1.05E-03
385.8,11.2672,5.58E+00,-6.55E-04
388.4,11.3461,5.56E+00,-1.14E-03
391,11.4254,5.55E+00,-1.66E-03
393.6,11.5045,5.53E+00,-2.21E-03
396.2,11.5839,5.53E+00,-2.82E-03
398.8,11.6634,5.51E+00,-3.48E-03
401.4,11.7429,5.50E+00,-4.16E-03
404,11.8222,5.49E+00,-4.93E-03
406.6,11.9019,5.47E+00,-5.69E-03
409.2,11.9816,5.46E+00,-5.21E-03
411.8,12.0611,5.46E+00,-4.79E-03
414.4,12.1411,5.44E+00,-5.69E-03
417,12.2211,5.42E+00,-8.05E-03
419.6,12.3011,5.42E+00,-9.10E-03
422.2,12.381,5.44E+00,-1.02E-02
424.8,12.4612,5.43E+00,-1.01E-02
427.4,12.5414,5.43E+00,-1.15E-02
430,12.621,5.43E+00,-1.16E-02
432.6,12.7022,5.43E+00,-1.35E-02
435.2,12.7826,5.43E+00,-1.55E-02
437.8,12.8631,5.43E+00,-1.80E-02
440.4,12.9437,5.45E+00,-2.09E-02
443,13.0244,5.46E+00,-2.32E-02
445.6,13.1051,5.47E+00,-2.84E-02
448.2,13.1858,5.48E+00,-3.31E-02
450.8,13.2667,5.51E+00,-3.69E-02
453.4,13.3473,5.51E+00,-4.30E-02
456,13.4286,5.53E+00,-5.12E-02
458.6,13.5095,5.54E+00,-5.89E-02
461.2,13.5901,5.57E+00,-6.71E-02
463.8,13.6717,5.57E+00,-7.58E-02
466.4,13.7525,5.55E+00,-8.75E-02
469,13.8339,5.61E+00,-0.10028
471.6,13.9153,5.65E+00,-0.11348
474.2,13.9971,5.75E+00,-0.12969
476.8,14.0779,5.80E+00,-0.14895
479.4,14.1599,5.86E+00,-0.17173
482,14.2419,6.02E+00,-0.19876
484.6,14.324,6.15E+00,-0.23061
487.2,14.4052,6.35E+00,-0.26652
489.8,14.4879,6.53E+00,-0.31079
492.4,14.5702,6.71E+00,-0.36151
495,14.6521,6.96E+00,-0.42105
497.6,14.7353,7.18E+00,-0.4906
500.2,14.8174,7.45E+00,-0.57116
502.8,14.9002,7.71E+00,-0.66418
505.4,14.9832,8.00E+00,-0.76714
508,15.0654,8.10E+00,-0.88566
510.6,15.148,8.18E+00,-1.0183
513.2,15.2305,8.49E+00,-1.16872
515.8,15.3138,8.60E+00,-1.33666
518.4,15.3967,8.79E+00,-1.5197
521,15.4789,8.81E+00,-1.7131
523.6,15.5616,8.83E+00,-1.90948
526.2,15.644,8.71E+00,-2.09669
528.8,15.7251,8.28E+00,-2.2597
531.4,15.8053,7.38E+00,-2.40252
534,15.8834,6.12E+00,-2.52087
536.6,15.9613,4.59E+00,-2.61572
539.2,16.0395,3.16E+00,-2.68892
541.8,16.1193,2.27E+00,-2.75123
544.4,16.1997,1.73E+00,-2.80449
547,16.2811,1.46E+00,-2.84609
549.6,16.3632,1.38E+00,-2.87927
552.2,16.4453,1.36E+00,-2.90386
554.8,16.5278,1.39E+00,-2.92113
557.4,16.6101,1.41E+00,-2.94002
560,16.6927,1.41E+00,-2.95394
562.6,16.7753,1.41E+00,-2.98384
565.2,16.8578,1.40E+00,-3.00775
567.8,16.941,1.39E+00,-3.03583
570.4,17.0237,1.35E+00,-3.09528
573,17.1071,1.35E+00,-3.16146
575.6,17.1904,1.35E+00,-3.23712
578.2,17.2742,1.30E+00,-3.32202
580.8,17.3583,1.34E+00,-3.40429
583.4,17.4422,9.94E-01,-3.47803
586,17.5276,8.23E-01,-3.5378
588.6,17.6124,7.42E-01,-3.57593
591.2,17.6976,6.97E-01,-3.60603
593.8,17.782,6.63E-01,-3.62444
596.4,17.8663,6.48E-01,-3.61786
599,17.951,6.29E-01,-3.60449
601.6,18.0355,6.24E-01,-3.58403
604.2,18.1195,6.13E-01,-3.56164
606.8,18.204,5.73E-01,-3.53706
609.4,18.2883,5.75E-01,-3.51406
612,18.3725,5.58E-01,-3.49309
614.6,18.4569,5.66E-01,-3.4736
617.2,18.5413,5.96E-01,-3.45523
619.8,18.6261,6.02E-01,-3.44027
622.4,18.7105,5.70E-01,-3.4273
625,18.7947,6.03E-01,-3.41566
627.6,18.8795,6.27E-01,-3.40565
630.2,18.9642,6.18E-01,-3.39709
632.8,19.0486,6.36E-01,-3.38987
635.4,19.1335,6.60E-01,-3.3835
638,19.2178,6.42E-01,-3.3776
640.6,19.3029,6.32E-01,-3.37339
643.2,19.3869,6.51E-01,-3.36888
645.8,19.472,6.52E-01,-3.36628
648.4,19.5572,6.28E-01,-3.36515
651,19.6422,6.26E-01,-3.3634
653.6,19.7269,6.13E-01,-3.36245
656.2,19.8117,6.09E-01,-3.36153
658.8,19.8968,5.88E-01,-3.36098
661.4,19.9814,5.68E-01,-3.36089
664,20.0663,5.58E-01,-3.35952
666.6,20.151,5.36E-01,-3.35978
669.2,20.2365,6.76E-01,-3.35878
671.8,20.3215,7.38E-01,-3.35937
674.4,20.406,7.34E-01,-3.35861
677,20.4916,7.24E-01,-3.3594
679.6,20.5762,7.04E-01,-3.36031
682.2,20.6612,6.67E-01,-3.36131
684.8,20.746,6.22E-01,-3.3623
687.4,20.8313,5.96E-01,-3.36334
690,20.916,5.89E-01,-3.36448
692.6,21.0012,5.51E-01,-3.36534
695.2,21.0862,5.30E-01,-3.36554
697.8,21.1711,5.02E-01,-3.36677
700.4,21.2561,4.68E-01,-3.36802
703,21.3409,4.27E-01,-3.3686
705.6,21.4261,3.92E-01,-3.3692
708.2,21.5113,3.64E-01,-3.36981
710.8,21.596,3.31E-01,-3.37109
713.4,21.6808,3.06E-01,-3.3723
716,21.7659,2.67E-01,-3.37356
718.6,21.851,2.28E-01,-3.37416
721.2,21.936,1.77E-01,-3.37411
723.8,22.021,1.40E-01,-3.37533
726.4,22.1057,9.38E-02,-3.37655
729,22.1912,4.25E-02,-3.3768
731.6,22.2766,-6.06E-03,-3.37688
734.2,22.3614,-4.12E-02,-3.37762
736.8,22.4466,-6.71E-02,-3.38025
739.4,22.5319,-1.05E-01,-3.38137
742,22.6169,-1.28E-01,-3.38129
744.6,22.7016,-1.70E-01,-3.38252
747.2,22.787,-2.01E-01,-3.38373
749.8,22.8723,-2.25E-01,-3.38395
752.4,22.9578,-2.34E-01,-3.38514
755,23.043,-2.82E-01,-3.38599
757.6,23.1282,-2.96E-01,-3.38585
760.2,23.2135,-3.20E-01,-3.38695
762.8,23.2988,-3.48E-01,-3.38804
765.4,23.3841,-3.86E-01,-3.38779
768,23.4695,-4.12E-01,-3.3889
770.6,23.5554,-4.47E-01,-3.38861
773.2,23.6407,-4.51E-01,-3.3896
775.8,23.7258,-4.54E-01,-3.38935
778.4,23.8119,-4.88E-01,-3.39108
781,23.8971,-5.11E-01,-3.39217
783.6,23.9828,-5.07E-01,-3.39193
786.2,24.0686,-5.24E-01,-3.39276
788.8,24.1541,-5.29E-01,-3.39369
,,,-3.39336
,,,-3.39404