Folder: fsri_materials_database/01_Data/Fiber_Cement_Board/FTIR/IS

File: Fiber_Cement_Board_IS_T_221012_R1.dpt
7497.03,0.02335
7473.89,0.01817
7450.74,0.03127
7427.6,0.02014
7404.45,0.03131
7381.31,0.02499
7358.16,0.01384
7335.02,0.02720
7311.87,0.02433
7288.73,0.02177
7265.58,0.02539
7242.44,0.01971
7219.29,0.01341
7196.15,0.02448
7173,0.02640
7149.86,0.01831
7126.71,0.02171
7103.57,0.02192
7080.42,0.03331
7057.28,0.02481
7034.13,0.02237
7010.99,0.02140
6987.84,0.01664
6964.7,0.01987
6941.55,0.02135
6918.41,0.02035
6895.26,0.01890
6872.12,0.02644
6848.97,0.02311
6825.83,0.01946
6802.68,0.02257
6779.54,0.02113
6756.39,0.02462
6733.25,0.02517
6710.1,0.02437
6686.96,0.02022
6663.82,0.01836
6640.67,0.02390
6617.53,0.02512
6594.38,0.01958
6571.24,0.02111
6548.09,0.02194
6524.95,0.02210
6501.8,0.02015
6478.66,0.01716
6455.51,0.02063
6432.37,0.01980
6409.22,0.02221
6386.08,0.01932
6362.93,0.02219
6339.79,0.02453
6316.64,0.02349
6293.5,0.02274
6270.35,0.02228
6247.21,0.02192
6224.06,0.01747
6200.92,0.02013
6177.77,0.02165
6154.63,0.02323
6131.48,0.02448
6108.34,0.01988
6085.19,0.01993
6062.05,0.02025
6038.9,0.02341
6015.76,0.02153
5992.61,0.02180
5969.47,0.01969
5946.32,0.01905
5923.18,0.02397
5900.03,0.02069
5876.89,0.01965
5853.74,0.02079
5830.6,0.02056
5807.45,0.02012
5784.31,0.02119
5761.16,0.02168
5738.02,0.01926
5714.87,0.02097
5691.73,0.02304
5668.58,0.02014
5645.44,0.01959
5622.29,0.02177
5599.15,0.02054
5576,0.02227
5552.86,0.02196
5529.71,0.02200
5506.57,0.02245
5483.42,0.02063
5460.28,0.01959
5437.13,0.02178
5413.99,0.02167
5390.84,0.02190
5367.7,0.02332
5344.55,0.02103
5321.41,0.02158
5298.26,0.02125
5275.12,0.02143
5251.97,0.02070
5228.83,0.02175
5205.68,0.02190
5182.54,0.02193
5159.39,0.02003
5136.25,0.02291
5113.1,0.02246
5089.96,0.02354
5066.81,0.02055
5043.67,0.02145
5020.52,0.02173
4997.38,0.02194
4974.23,0.02186
4951.09,0.02120
4927.94,0.02029
4904.8,0.02155
4881.65,0.02246
4858.51,0.02228
4835.36,0.02084
4812.22,0.02265
4789.07,0.02073
4765.93,0.02247
4742.78,0.02239
4719.64,0.02130
4696.49,0.02088
4673.35,0.02186
4650.2,0.02081
4627.06,0.02210
4603.92,0.02196
4580.77,0.02206
4557.63,0.02265
4534.48,0.02222
4511.34,0.02247
4488.19,0.02110
4465.05,0.02173
4441.9,0.02282
4418.76,0.02144
4395.61,0.02173
4372.47,0.02128
4349.32,0.02205
4326.18,0.02203
4303.03,0.02209
4279.89,0.02179
4256.74,0.02219
4233.6,0.02135
4210.45,0.02137
4187.31,0.02164
4164.16,0.02171
4141.02,0.02177
4117.87,0.02217
4094.73,0.02215
4071.58,0.02233
4048.44,0.02230
4025.29,0.02173
4002.15,0.02257
3979,0.02204
3955.86,0.02222
3932.71,0.02246
3909.57,0.02198
3886.42,0.02257
3863.28,0.02165
3840.13,0.02302
3816.99,0.02254
3793.84,0.02238
3770.7,0.02243
3747.55,0.02240
3724.41,0.02251
3701.26,0.02218
3678.12,0.02265
3654.97,0.02244
3631.83,0.02221
3608.68,0.02181
3585.54,0.02154
3562.39,0.02081
3539.25,0.02108
3516.1,0.02046
3492.96,0.02107
3469.81,0.02045
3446.67,0.02040
3423.52,0.02069
3400.38,0.02023
3377.23,0.02010
3354.09,0.02022
3330.94,0.01941
3307.8,0.02003
3284.65,0.02013
3261.51,0.02019
3238.36,0.02023
3215.22,0.02030
3192.07,0.02051
3168.93,0.02083
3145.78,0.02065
3122.64,0.02021
3099.49,0.02023
3076.35,0.02003
3053.2,0.02001
3030.06,0.02023
3006.91,0.02029
2983.77,0.01981
2960.62,0.01902
2937.48,0.01950
2914.33,0.02036
2891.19,0.02060
2868.04,0.02003
2844.9,0.02113
2821.75,0.02079
2798.61,0.02084
2775.46,0.02139
2752.32,0.02082
2729.17,0.02085
2706.03,0.02088
2682.88,0.02120
2659.74,0.02094
2636.59,0.02035
2613.45,0.02125
2590.3,0.02091
2567.16,0.02094
2544.02,0.02068
2520.87,0.02085
2497.73,0.02113
2474.58,0.02114
2451.44,0.02089
2428.29,0.02064
2405.15,0.02099
2382,0.02139
2358.86,0.02451
2335.71,0.02363
2312.57,0.02202
2289.42,0.02097
2266.28,0.02134
2243.13,0.02083
2219.99,0.02084
2196.84,0.02105
2173.7,0.02086
2150.55,0.02073
2127.41,0.02062
2104.26,0.02113
2081.12,0.02056
2057.97,0.02100
2034.83,0.02110
2011.68,0.02059
1988.54,0.02064
1965.39,0.02090
1942.25,0.02045
1919.1,0.02045
1895.96,0.02055
1872.81,0.02003
1849.67,0.02046
1826.52,0.02003
1803.38,0.01968
1780.23,0.01912
1757.09,0.01786
1733.94,0.01985
1710.8,0.02071
1687.65,0.01909
1664.51,0.01861
1641.36,0.01860
1618.22,0.01901
1595.07,0.01850
1571.93,0.01809
1548.78,0.01844
1525.64,0.01920
1502.49,0.01885
1479.35,0.01849
1456.2,0.01878
1433.06,0.01887
1409.91,0.01826
1386.77,0.01783
1363.62,0.01872
1340.48,0.01788
1317.33,0.01663
1294.19,0.01782
1271.04,0.01962
1247.9,0.01983
1224.75,0.01946
1201.61,0.01889
1178.46,0.01757
1155.32,0.01759
1132.17,0.01747
1109.03,0.01859
1085.88,0.01886
1062.74,0.01942
1039.59,0.01947
1016.45,0.01915
993.304,0.02110
970.159,0.01996
947.014,0.01864
923.869,0.01887
900.724,0.01901
877.579,0.01844
854.434,0.01854
831.289,0.01816
808.144,0.01896
784.999,0.01842
761.854,0.01841
738.709,0.01778
715.565,0.01854
692.42,0.01767
669.275,0.01778
646.13,0.01528
622.985,0.01448
599.84,0.01756