Folder: fsri_materials_database/01_Data/Fiber_Reinforced_Helmet_Shell/STA/N2/10K_min (part 3)

File: Fiber_Reinforced_Helmet_Shell_STA_N2_10KData_250501_R5.csv
Temp./C,Time/min,DSC/(mW/mg),Mass loss/mg
60.0,0.0,0.421293,-0.00598822
62.3,0.293408,0.451947,-0.0036961
64.6,0.576944,0.478575,-0.0081893
66.9,0.847352,0.499378,-0.00709076
69.2,1.11282,0.517133,-0.00575818
71.5,1.37621,0.525714,-0.00456714
73.8,1.63229,0.546463,-0.00579665
76.1,1.88318,0.561821,-0.00582973
78.4,2.13209,0.568254,-0.00856661
80.7,2.37739,0.56799,-0.00746375
83,2.61949,0.578464,-0.00712625
85.3,2.85648,0.595244,-0.00845581
87.6,3.09521,0.610073,-0.00786599
89.9,3.32971,0.612862,-0.00770242
92.2,3.5609,0.62026,-0.00986697
94.5,3.79227,0.631655,-0.00859992
96.8,4.0198,0.628283,-0.00845333
99.1,4.24761,0.631427,-0.0100974
101.4,4.47311,0.646415,-0.00977387
103.7,4.69863,0.646828,-0.011098
106,4.92278,0.651147,-0.0104353
108.3,5.14663,0.656566,-0.0111
110.6,5.36947,0.661151,-0.0124127
112.9,5.59232,0.661227,-0.00972576
115.2,5.81393,0.667929,-0.0124103
117.5,6.03805,0.657469,-0.0137306
119.8,6.2597,0.662529,-0.012789
122.1,6.4785,0.660603,-0.01373
124.4,6.70273,0.667322,-0.0153608
126.7,6.92167,0.669839,-0.0140481
129,7.14352,0.657024,-0.0188809
131.3,7.36397,0.664279,-0.0155823
133.6,7.58251,0.664653,-0.0168985
135.9,7.80185,0.660622,-0.0182582
138.2,8.0196,0.655711,-0.0182184
140.5,8.23875,0.656205,-0.0180779
142.8,8.45779,0.646496,-0.01921
145.1,8.67409,0.645739,-0.0192163
147.4,8.89248,0.653113,-0.02186
149.7,9.10998,0.656682,-0.0215182
152,9.3281,0.657205,-0.021851
154.3,9.54425,0.651635,-0.0224968
156.6,9.76221,0.658596,-0.02218
158.9,9.97965,0.659756,-0.02482
161.2,10.1959,0.661024,-0.0274531
163.5,10.4134,0.668448,-0.02745
165.8,10.6292,0.680919,-0.02778
168.1,10.8488,0.688149,-0.0297723
170.4,11.0657,0.70008,-0.0287711
172.7,11.2817,0.710337,-0.02877
175,11.5004,0.718717,-0.03107
177.3,11.7166,0.722612,-0.0310699
179.6,11.9331,0.738104,-0.03075
181.9,12.1497,0.742404,-0.03239
184.2,12.3664,0.744684,-0.0328568
186.5,12.5827,0.755628,-0.0336868
188.8,12.7998,0.757669,-0.0340394
191.1,13.016,0.765401,-0.03536
193.4,13.2337,0.785547,-0.0344199
195.7,13.4511,0.788599,-0.0379895
198,13.6666,0.796523,-0.0393
200.3,13.8835,0.817191,-0.0406159
202.6,14.0973,0.828208,-0.0409253
204.9,14.3147,0.83496,-0.0383138
207.2,14.5315,0.831114,-0.0422622
209.5,14.7487,0.844065,-0.0434461
211.8,14.9657,0.852362,-0.0424451
214.1,15.1831,0.862672,-0.04359
216.4,15.3993,0.861805,-0.0458892
218.7,15.6159,0.869867,-0.0501688
221,15.834,0.874547,-0.0517727
223.3,16.0502,0.890289,-0.0517143
225.6,16.2664,0.894246,-0.0490806
227.9,16.4849,0.90237,-0.0517202
230.2,16.7011,0.905794,-0.0557141
232.5,16.9189,0.907424,-0.0556599
234.8,17.1353,0.916554,-0.0583
237.1,17.3535,0.91425,-0.0596167
239.4,17.5701,0.913989,-0.0622496
241.7,17.7863,0.916851,-0.0674581
244,18.0047,0.925473,-0.0688692
246.3,18.2228,0.93441,-0.0714707
248.6,18.4399,0.946441,-0.073185
250.9,18.6573,0.952282,-0.078061
253.2,18.8765,0.957441,-0.0834397
255.5,19.0934,0.963295,-0.0871176
257.8,19.3085,0.956732,-0.0923301
260.1,19.5281,0.964353,-0.0968357
262.4,19.7465,0.958809,-0.107116
264.7,19.9645,0.955085,-0.111814
267,20.1821,0.945436,-0.118675
269.3,20.4007,0.927519,-0.127534
271.6,20.6195,0.920946,-0.132764
273.9,20.8378,0.905247,-0.14111
276.2,21.0554,0.888064,-0.15006
278.5,21.2739,0.877063,-0.162311
280.8,21.4935,0.865895,-0.171294
283.1,21.7118,0.853055,-0.181937
285.4,21.9285,0.843067,-0.193795
287.7,22.1473,0.819519,-0.209841
290,22.3657,0.80517,-0.223629
292.3,22.5836,0.771422,-0.240111
294.6,22.8017,0.6771,-0.262507
296.9,23.0189,0.557955,-0.286066
299.2,23.2377,0.524475,-0.312119
301.5,23.4564,0.558217,-0.335825
303.8,23.6759,0.625836,-0.357395
306.1,23.8963,0.671806,-0.376596
308.4,24.1157,0.704345,-0.390233
310.7,24.3357,0.727821,-0.40456
313,24.556,0.742143,-0.416826
315.3,24.7757,0.755432,-0.428612
317.6,24.9955,0.77157,-0.439036
319.9,25.2158,0.778605,-0.450101
322.2,25.4364,0.790583,-0.459005
324.5,25.6572,0.79752,-0.470642
326.8,25.8772,0.806885,-0.479594
329.1,26.0953,0.815588,-0.489858
331.4,26.3172,0.812859,-0.500848
333.7,26.5375,0.818745,-0.510276
336,26.7591,0.816221,-0.521031
338.3,26.9796,0.820131,-0.528424
340.6,27.2011,0.811206,-0.539139
342.9,27.4222,0.80425,-0.549645
345.2,27.6432,0.797312,-0.560108
347.5,27.8638,0.794021,-0.568108
349.8,28.0865,0.791971,-0.578722
352.1,28.3075,0.790218,-0.586644
354.4,28.5297,0.78184,-0.596139
356.7,28.7507,0.777357,-0.606306
359,28.9722,0.775492,-0.612361
361.3,29.1938,0.779222,-0.626605
363.6,29.4161,0.785603,-0.635395
365.9,29.6379,0.784135,-0.646545
368.2,29.8585,0.781595,-0.655474
370.5,30.0823,0.789278,-0.668293
372.8,30.3062,0.796629,-0.680021
375.1,30.5286,0.800935,-0.689992
377.4,30.7522,0.799122,-0.706544
379.7,30.9755,0.805663,-0.720445
382,31.1981,0.814761,-0.733982
384.3,31.4215,0.814042,-0.749357
386.6,31.6444,0.835091,-0.764749
388.9,31.8676,0.8486,-0.782323
391.2,32.0912,0.858981,-0.799692
393.5,32.3141,0.874751,-0.81674
395.8,32.539,0.892517,-0.838939
398.1,32.7618,0.903744,-0.859784
400.4,32.9859,0.91038,-0.881042
402.7,33.2088,0.906798,-0.903359
405,33.433,0.912524,-0.927103
407.3,33.656,0.908577,-0.949651
409.6,33.8801,0.902223,-0.978179
411.9,34.1036,0.891464,-1.00365
414.2,34.3275,0.869415,-1.0275
416.5,34.551,0.842756,-1.05162
418.8,34.7735,0.80819,-1.07464
421.1,34.9985,0.774986,-1.09798
423.4,35.2228,0.740632,-1.12038
425.7,35.4459,0.705513,-1.14011
428,35.6704,0.658509,-1.16073
430.3,35.8953,0.622309,-1.17865
432.6,36.1217,0.57785,-1.19846
434.9,36.3447,0.540205,-1.2116
437.2,36.5695,0.496712,-1.22297
439.5,36.7943,0.466047,-1.23585
441.8,37.0187,0.42973,-1.24688
444.1,37.2436,0.398655,-1.25956
446.4,37.469,0.376234,-1.26525
448.7,37.6937,0.351437,-1.27428
451,37.9176,0.325887,-1.28379
453.3,38.1449,0.318095,-1.28905
455.6,38.3705,0.301727,-1.29429
457.9,38.5967,0.27725,-1.2996
460.2,38.8218,0.267793,-1.30741
462.5,39.0475,0.247771,-1.31061
464.8,39.2738,0.240596,-1.31551
467.1,39.5012,0.2332,-1.32077
469.4,39.727,0.217691,-1.32199
471.7,39.9534,0.215382,-1.3246
474,40.1802,0.20557,-1.33167
476.3,40.4065,0.20411,-1.33336
478.6,40.6327,0.192947,-1.33457
480.9,40.8598,0.190686,-1.33907
483.2,41.086,0.184285,-1.34397
485.5,41.3113,0.187662,-1.34635
487.8,41.5398,0.16881,-1.35013
490.1,41.7666,0.168541,-1.34946
492.4,41.9939,0.156043,-1.35354
494.7,42.2219,0.143075,-1.35747
497,42.4478,0.1386,-1.35875
499.3,42.6754,0.126634,-1.36386
501.6,42.903,0.122433,-1.36144
503.9,43.1295,0.119377,-1.36452
506.2,43.3559,0.113113,-1.36785
508.5,43.584,0.116207,-1.36877
510.8,43.8118,0.11089,-1.37106
513.1,44.039,0.103017,-1.37528
515.4,44.2666,0.101362,-1.37525
517.7,44.4951,0.0768798,-1.3782
520,44.7229,0.0811283,-1.38085
522.3,44.9516,0.0765668,-1.38085
524.6,45.179,0.0632764,-1.38221
526.9,45.4078,0.0639356,-1.38263
529.2,45.6359,0.0479748,-1.38525
531.5,45.8629,0.0420743,-1.38611
533.8,46.0898,0.0399783,-1.39008
536.1,46.3197,0.0375634,-1.39144
538.4,46.548,0.0358631,-1.39172
540.7,46.7761,0.0266094,-1.39436
543,47.0054,0.0256188,-1.39666
545.3,47.2337,0.0264315,-1.39798
547.6,47.4627,0.0312412,-1.40094
549.9,47.6919,0.0313975,-1.4008
552.2,47.9204,0.0232305,-1.40226
554.5,48.1504,0.0160372,-1.40489
556.8,48.3787,0.0158076,-1.4044
559.1,48.6084,0.0124726,-1.40833
561.4,48.8374,0.00663074,-1.41016
563.7,49.0675,0.00104355,-1.41434
566,49.2941,-0.00652467,-1.41171
568.3,49.5256,-0.00881937,-1.41499
570.6,49.754,-0.0200198,-1.41434
572.9,49.9831,-0.0185606,-1.41828
575.2,50.2131,-0.0304221,-1.4196
577.5,50.4425,-0.0246723,-1.41964
579.8,50.6707,-0.0280666,-1.4206
582.1,50.9006,-0.0178923,-1.42634
584.4,51.1291,-0.0214763,-1.42313
586.7,51.3597,-0.0286208,-1.42455
589,51.5883,-0.027477,-1.42455
591.3,51.8183,-0.0418003,-1.42586
593.6,52.0477,-0.0544633,-1.42715
595.9,52.2777,-0.0513694,-1.42916
598.2,52.5081,-0.0696528,-1.4285
600.5,52.7378,-0.0863958,-1.43146
602.8,52.9687,-0.0953911,-1.43278
605.1,53.1993,-0.121062,-1.43554
607.4,53.4292,-0.124013,-1.43453
609.7,53.6588,-0.130591,-1.43452
612,53.8886,-0.13185,-1.43454
614.3,54.1196,-0.150403,-1.43322
616.6,54.3485,-0.151198,-1.43419
618.9,54.5786,-0.152845,-1.43452
621.2,54.8087,-0.159532,-1.43684
623.5,55.0391,-0.18246,-1.43849
625.8,55.2702,-0.188672,-1.43783
628.1,55.5012,-0.189011,-1.44133
630.4,55.7302,-0.199825,-1.43608
632.7,55.9591,-0.219119,-1.43767
635,56.1911,-0.225763,-1.43902
637.3,56.421,-0.232176,-1.44003
639.6,56.6508,-0.246949,-1.43969
641.9,56.8813,-0.250552,-1.43952
644.2,57.112,-0.250475,-1.43805
646.5,57.3423,-0.260081,-1.44428
648.8,57.5731,-0.270497,-1.44057
651.1,57.8037,-0.282063,-1.44057
653.4,58.0334,-0.291076,-1.44024
655.7,58.2643,-0.308641,-1.44157
658,58.4943,-0.313766,-1.44255
660.3,58.7243,-0.324771,-1.44386
662.6,58.9549,-0.34086,-1.44159
664.9,59.1851,-0.351483,-1.4432
667.2,59.4155,-0.373268,-1.44386
669.5,59.6466,-0.384917,-1.44422
671.8,59.8765,-0.405994,-1.44453
674.1,60.1072,-0.41195,-1.44321
676.4,60.3382,-0.429016,-1.44709
678.7,60.5688,-0.437911,-1.44916
681,60.8018,-0.456027,-1.44519
683.3,61.0333,-0.459619,-1.44452
685.6,61.2648,-0.483696,-1.4443
687.9,61.4956,-0.489759,-1.44848
690.2,61.7267,-0.507942,-1.44692
692.5,61.958,-0.530952,-1.44578
694.8,62.1892,-0.535736,-1.44584
697.1,62.4219,-0.548593,-1.44716
699.4,62.6543,-0.563219,-1.4488
701.7,62.8847,-0.577708,-1.44617
704,63.116,-0.596147,-1.44881
706.3,63.3472,-0.605925,-1.44883
708.6,63.5803,-0.623981,-1.44749
710.9,63.8121,-0.624573,-1.44617
713.2,64.044,-0.631599,-1.44962
715.5,64.2757,-0.646664,-1.44957
717.8,64.5096,-0.642544,-1.44789
720.1,64.7419,-0.64879,-1.44807
722.4,64.9726,-0.652242,-1.44858
724.7,65.2062,-0.652155,-1.44958
727,65.4384,-0.655461,-1.44958
729.3,65.6711,-0.664381,-1.44991
731.6,65.903,-0.653057,-1.44991
733.9,66.135,-0.65339,-1.44866
736.2,66.3681,-0.655368,-1.45134
738.5,66.6004,-0.633109,-1.45155
740,66.7522,-0.639903,-1.45168