Folder: fsri_materials_database/01_Data/Fiber_Reinforced_Helmet_Shell/STA/N2/30K_min

File: Fiber_Reinforced_Helmet_Shell_STA_N2_30KData_240228_R1.csv
Temp./C,Time/min,DSC/(mW/mg),Mass loss/mg
60.0,0.0,1.39179,-0.00530999
62.3,0.115086,1.5976,-0.00585094
64.6,0.221019,1.78655,-0.00420059
66.9,0.319702,1.94741,-0.00668128
69.2,0.415153,2.06718,-0.0061476
71.5,0.506748,2.15501,-0.00866227
73.8,0.595925,2.2272,-0.00855734
76.1,0.682732,2.31646,-0.00640265
78.4,0.768196,2.39792,-0.0082272
80.7,0.851496,2.47438,-0.00773375
83,0.934243,2.56169,-0.0106404
85.3,1.01552,2.63423,-0.0107716
87.6,1.0965,2.72068,-0.00827345
89.9,1.176,2.78949,-0.0089048
92.2,1.25467,2.86692,-0.00897355
94.5,1.33298,2.93409,-0.00985654
96.8,1.41119,2.99406,-0.00987944
99.1,1.48787,3.05099,-0.0129078
101.4,1.5652,3.09887,-0.0129734
103.7,1.64233,3.14546,-0.0129501
106,1.71862,3.18841,-0.0140244
108.3,1.79522,3.22756,-0.0156834
110.6,1.87137,3.25348,-0.0163565
112.9,1.94734,3.28496,-0.0176697
115.2,2.02327,3.31473,-0.0156601
117.5,2.09915,3.33174,-0.0157
119.8,2.17496,3.36325,-0.0157017
122.1,2.25035,3.37819,-0.0170106
124.4,2.32544,3.39687,-0.01701
126.7,2.39978,3.42171,-0.0170074
129,2.47518,3.43105,-0.0211129
131.3,2.54997,3.44653,-0.0237202
133.6,2.62439,3.46653,-0.02372
135.9,2.69826,3.48474,-0.0237168
138.2,2.77193,3.50056,-0.0236673
140.5,2.84586,3.51311,-0.02371
142.8,2.91938,3.5349,-0.0237103
145.1,2.99227,3.55534,-0.025028
147.4,3.06564,3.58034,-0.0237758
149.7,3.13809,3.59813,-0.0223968
152,3.21027,3.60903,-0.02372
154.3,3.28322,3.63277,-0.0243304
156.6,3.3556,3.66096,-0.0250299
158.9,3.42821,3.6815,-0.0263426
161.2,3.50017,3.70479,-0.02733
163.5,3.57251,3.72473,-0.0273306
165.8,3.64475,3.74322,-0.0286181
168.1,3.71678,3.75787,-0.0289833
170.4,3.78839,3.78965,-0.0284831
172.7,3.86026,3.80814,-0.0303344
175,3.93212,3.83315,-0.031611
177.3,4.0034,3.86318,-0.0326079
179.6,4.07375,3.89493,-0.0326
181.9,4.14618,3.9202,-0.0326
184.2,4.21666,3.9488,-0.0329514
186.5,4.28761,3.98347,-0.0342491
188.8,4.3584,4.0132,-0.0356079
191.1,4.42937,4.05879,-0.03557
193.4,4.49964,4.09572,-0.0349703
195.7,4.57013,4.13461,-0.0342525
198,4.64028,4.17489,-0.0342504
200.3,4.71059,4.21279,-0.0365647
202.6,4.78072,4.25053,-0.0374613
204.9,4.85122,4.28783,-0.0362267
207.2,4.92103,4.33858,-0.0362263
209.5,4.99121,4.38342,-0.0348749
211.8,5.06147,4.42537,-0.0355763
214.1,5.13142,4.47735,-0.0387755
216.4,5.20128,4.51731,-0.0415969
218.7,5.2707,4.56839,-0.0442339
221,5.34124,4.6273,-0.0455576
223.3,5.41102,4.6985,-0.0455606
225.6,5.48024,4.77551,-0.0469948
227.9,5.55093,4.86398,-0.0465002
230.2,5.6209,4.96882,-0.0468582
232.5,5.6908,5.06527,-0.0482402
234.8,5.76075,5.19628,-0.0497712
237.1,5.83055,5.31849,-0.0526184
239.4,5.90093,5.47397,-0.0548793
241.7,5.97083,5.62361,-0.0584528
244,6.04046,5.78415,-0.061952
246.3,6.11087,5.94553,-0.0683035
248.6,6.18125,6.10007,-0.0748005
250.9,6.25098,6.24548,-0.0808301
253.2,6.32082,6.35008,-0.0848614
255.5,6.3904,6.40274,-0.090754
257.8,6.45995,6.39701,-0.100089
260.1,6.52899,6.34521,-0.107234
262.4,6.59822,6.26162,-0.113117
264.7,6.66732,6.17933,-0.12086
267,6.73632,6.09215,-0.12809
269.3,6.80515,5.99286,-0.137293
271.6,6.87402,5.89219,-0.146477
273.9,6.94299,5.78122,-0.15624
276.2,7.01207,5.66922,-0.165119
278.5,7.08102,5.5745,-0.174215
280.8,7.15003,5.49204,-0.184093
283.1,7.21897,5.43415,-0.195075
285.4,7.28828,5.37398,-0.209221
287.7,7.3575,5.32521,-0.223533
290,7.4266,5.24375,-0.238165
292.3,7.49555,5.12466,-0.253334
294.6,7.5643,4.96784,-0.269323
296.9,7.63279,4.77155,-0.286772
299.2,7.70199,4.54748,-0.304126
301.5,7.77048,4.3279,-0.323065
303.8,7.83966,4.12488,-0.341599
306.1,7.9087,3.9844,-0.360935
308.4,7.97766,3.91523,-0.380945
310.7,8.04754,3.91191,-0.399442
313,8.11719,3.9453,-0.418259
315.3,8.18702,3.99129,-0.430975
317.6,8.25666,4.04456,-0.442886
319.9,8.32666,4.09668,-0.454431
322.2,8.39652,4.14417,-0.462751
324.5,8.46668,4.18334,-0.471641
326.8,8.53647,4.21395,-0.481354
329.1,8.60647,4.21869,-0.48958
331.4,8.67659,4.2364,-0.498258
333.7,8.74658,4.25244,-0.506911
336,8.81667,4.27443,-0.516168
338.3,8.88644,4.28218,-0.525736
340.6,8.95667,4.28154,-0.534432
342.9,9.02695,4.28788,-0.544647
345.2,9.0967,4.2844,-0.552529
347.5,9.16742,4.27807,-0.561327
349.8,9.23791,4.26688,-0.569374
352.1,9.30814,4.26815,-0.577801
354.4,9.37836,4.25757,-0.58522
356.7,9.44916,4.26029,-0.59161
359,9.51967,4.24254,-0.600159
361.3,9.59007,4.23428,-0.609439
363.6,9.66076,4.22514,-0.616751
365.9,9.73173,4.20721,-0.625772
368.2,9.80263,4.20372,-0.63279
370.5,9.87326,4.20896,-0.640706
372.8,9.94462,4.21235,-0.650279
375.1,10.0154,4.20394,-0.659202
377.4,10.0864,4.21205,-0.668003
379.7,10.1575,4.2197,-0.678627
382,10.2284,4.23591,-0.6898
384.3,10.2997,4.25475,-0.702253
386.6,10.3714,4.27998,-0.714572
388.9,10.4427,4.3079,-0.724034
391.2,10.5143,4.35178,-0.737735
393.5,10.5855,4.38056,-0.750853
395.8,10.6576,4.406,-0.767174
398.1,10.7283,4.43997,-0.78406
400.4,10.8008,4.46919,-0.801392
402.7,10.8721,4.49369,-0.820957
405,10.9438,4.50412,-0.84226
407.3,11.0155,4.49631,-0.862649
409.6,11.0873,4.48231,-0.885619
411.9,11.1591,4.44074,-0.908319
414.2,11.2307,4.38378,-0.931152
416.5,11.3023,4.31325,-0.956219
418.8,11.374,4.22537,-0.982398
421.1,11.4456,4.13847,-1.00779
423.4,11.5173,4.02346,-1.03229
425.7,11.5893,3.90398,-1.0548
428,11.6608,3.77726,-1.07979
430.3,11.7325,3.64749,-1.10464
432.6,11.8045,3.54671,-1.12883
434.9,11.8767,3.4268,-1.1528
437.2,11.9485,3.34288,-1.174
439.5,12.0206,3.25566,-1.19394
441.8,12.0929,3.18955,-1.21518
444.1,12.1651,3.13114,-1.23273
446.4,12.2378,3.08455,-1.24711
448.7,12.31,3.03722,-1.2623
451,12.383,2.99904,-1.27583
453.3,12.4553,2.96323,-1.28555
455.6,12.5277,2.92356,-1.29573
457.9,12.6008,2.90583,-1.30645
460.2,12.674,2.87335,-1.31423
462.5,12.7468,2.86228,-1.32155
464.8,12.8195,2.84879,-1.3264
467.1,12.8929,2.8326,-1.3317
469.4,12.9657,2.81365,-1.33547
471.7,13.039,2.80045,-1.33979
474,13.1125,2.78183,-1.34335
476.3,13.1849,2.76253,-1.34801
478.6,13.2589,2.72897,-1.35149
480.9,13.3324,2.71461,-1.35534
483.2,13.4057,2.68872,-1.359
485.5,13.4791,2.66632,-1.36578
487.8,13.5528,2.64183,-1.36846
490.1,13.6265,2.61778,-1.37035
492.4,13.6998,2.60174,-1.37281
494.7,13.7737,2.57381,-1.37644
497,13.8473,2.56578,-1.37915
499.3,13.9213,2.53372,-1.3827
501.6,13.9949,2.52232,-1.3869
503.9,14.0691,2.50568,-1.3897
506.2,14.1429,2.48579,-1.39128
508.5,14.2164,2.45422,-1.39266
510.8,14.2911,2.43906,-1.39521
513.1,14.365,2.41065,-1.3983
515.4,14.4392,2.38732,-1.4037
517.7,14.5136,2.36138,-1.40655
520,14.5875,2.33503,-1.40797
522.3,14.6618,2.3092,-1.40921
524.6,14.7358,2.28113,-1.41198
526.9,14.8105,2.2515,-1.41361
529.2,14.8847,2.22439,-1.4167
531.5,14.9591,2.20441,-1.41949
533.8,15.0336,2.17857,-1.42099
536.1,15.108,2.14638,-1.42425
538.4,15.1826,2.1277,-1.4289
540.7,15.257,2.09148,-1.43036
543,15.3317,2.06166,-1.43164
545.3,15.4059,2.04271,-1.43387
547.6,15.4813,2.01898,-1.43661
549.9,15.5558,1.99546,-1.43802
552.2,15.6306,1.96661,-1.43976
554.5,15.7057,1.94263,-1.44201
556.8,15.7803,1.91678,-1.44526
559.1,15.8551,1.89668,-1.44895
561.4,15.9302,1.85989,-1.45042
563.7,16.0049,1.83658,-1.45398
566,16.0797,1.81472,-1.45781
568.3,16.1549,1.78804,-1.45785
570.6,16.23,1.76508,-1.46026
572.9,16.3054,1.75412,-1.46181
575.2,16.3806,1.73512,-1.46477
577.5,16.4549,1.71807,-1.46463
579.8,16.5303,1.69015,-1.46611
582.1,16.6058,1.67174,-1.46934
584.4,16.6813,1.65056,-1.47182
586.7,16.7565,1.63946,-1.47476
589,16.8318,1.616,-1.47788
591.3,16.9068,1.5883,-1.48063
593.6,16.9826,1.56495,-1.48203
595.9,17.058,1.5483,-1.48177
598.2,17.1335,1.53188,-1.48117
600.5,17.209,1.5251,-1.48214
602.8,17.2847,1.50378,-1.48486
605.1,17.3601,1.49005,-1.48737
607.4,17.4357,1.47384,-1.49083
609.7,17.5111,1.44716,-1.49351
612,17.5866,1.41154,-1.4948
614.3,17.6625,1.3697,-1.49427
616.6,17.7382,1.32741,-1.49331
618.9,17.8139,1.30155,-1.49576
621.2,17.8893,1.26108,-1.49728
623.5,17.9649,1.24447,-1.49864
625.8,18.0409,1.22214,-1.49972
628.1,18.1167,1.20671,-1.50129
630.4,18.1921,1.16694,-1.49997
632.7,18.2681,1.13117,-1.50129
635,18.344,1.09682,-1.5039
637.3,18.4199,1.07203,-1.50524
639.6,18.4955,1.0408,-1.50655
641.9,18.5715,1.02042,-1.50791
644.2,18.6475,0.99377,-1.50656
646.5,18.7233,0.960544,-1.50787
648.8,18.7995,0.927326,-1.50919
651.1,18.8755,0.902279,-1.51051
653.4,18.9518,0.875197,-1.51061
655.7,19.0278,0.834491,-1.51057
658,19.1038,0.809087,-1.51182
660.3,19.1801,0.77788,-1.51309
662.6,19.2564,0.753446,-1.51446
664.9,19.3324,0.716824,-1.51471
667.2,19.4089,0.673352,-1.51545
669.5,19.4851,0.654048,-1.51447
671.8,19.5613,0.608766,-1.51577
674.1,19.6376,0.583746,-1.51437
676.4,19.7141,0.549677,-1.51445
678.7,19.7905,0.503021,-1.51544
681,19.8667,0.47707,-1.51542
683.3,19.9434,0.435196,-1.51445
685.6,20.0196,0.40122,-1.51576
687.9,20.0966,0.37498,-1.51826
690.2,20.1728,0.347356,-1.51779
692.5,20.2493,0.308134,-1.51709
694.8,20.3261,0.279763,-1.51709
697.1,20.4026,0.26106,-1.5184
699.4,20.4794,0.229756,-1.51709
701.7,20.5558,0.20079,-1.51642
704,20.6328,0.173213,-1.51717
706.3,20.7098,0.144814,-1.5194
708.6,20.7867,0.119183,-1.51937
710.9,20.8634,0.0933645,-1.5194
713.2,20.9403,0.0786744,-1.51949
715.5,21.0172,0.0567984,-1.51893
717.8,21.094,0.0292086,-1.51939
720.1,21.171,0.0122142,-1.51926
722.4,21.2483,-0.0112729,-1.51939
724.7,21.3251,-0.0250246,-1.51939
727,21.4024,-0.037333,-1.52127
729.3,21.4796,-0.0554614,-1.52371
731.6,21.5568,-0.0680871,-1.52563
733.9,21.6332,-0.0790785,-1.52557
736.2,21.7109,-0.0865014,-1.52606
738.5,21.7883,-0.0988191,-1.52497
740,21.8385,-0.103659,-1.52341

File: Fiber_Reinforced_Helmet_Shell_STA_N2_30KData_250429_R2.csv
Temp./C,Time/min,DSC/(mW/mg),Mass loss/mg
60.0,0.0,0.882901,0.0124105
62.3,0.133654,1.01779,0.00542591
64.6,0.25699,1.13263,0.0119136
66.9,0.372612,1.24207,0.0106049
69.2,0.483019,1.32912,0.0119584
71.5,0.588655,1.41525,0.0105509
73.8,0.690562,1.48063,0.0114628
76.1,0.790092,1.54661,0.00936832
78.4,0.886906,1.59812,0.00887491
80.7,0.981963,1.65199,0.0107725
83,1.07505,1.69064,0.0106405
85.3,1.16653,1.73691,0.0106331
87.6,1.25632,1.76978,0.0114621
89.9,1.34514,1.80914,0.0101922
92.2,1.43227,1.83852,0.0097923
94.5,1.51856,1.87934,0.00934573
96.8,1.60378,1.91837,0.00771239
99.1,1.68851,1.93345,0.00743991
101.4,1.77162,1.9706,0.00789187
103.7,1.85466,1.99483,0.00925139
106,1.93802,2.02861,0.00961254
108.3,2.02031,2.05413,0.00911075
110.6,2.10187,2.09051,0.00796783
112.9,2.18318,2.12188,0.0077905
115.2,2.26363,2.14234,0.00778971
117.5,2.34392,2.16224,0.00648376
119.8,2.42333,2.1956,0.00648817
122.1,2.50268,2.2206,0.00922526
124.4,2.58193,2.23738,0.00678887
126.7,2.66035,2.25848,0.0054826
129,2.73821,2.2843,0.00564561
131.3,2.81462,2.30528,0.00520859
133.6,2.89208,2.31809,0.00394154
135.9,2.96907,2.33622,0.00367462
138.2,3.04516,2.34988,0.00262844
140.5,3.11991,2.37514,0.00394932
142.8,3.19523,2.39139,0.00264284
145.1,3.27059,2.40293,0.00264
147.4,3.34457,2.41792,0.00264
149.7,3.41849,2.42307,0.0026405
152,3.4916,2.43394,0.0013169
154.3,3.56591,2.44047,0.00132
156.6,3.63892,2.45187,0.00135265
158.9,3.71224,2.45346,-0.00131992
161.2,3.78497,2.4595,-0.00132003
163.5,3.85713,2.47053,-0.00264535
165.8,3.93007,2.47141,-0.00265597
168.1,4.00195,2.48541,-0.00396148
170.4,4.07416,2.50252,-0.00330188
172.7,4.1459,2.52096,-0.00330154
175,4.21713,2.53144,-0.00461689
177.3,4.2891,2.55522,-0.00594409
179.6,4.36032,2.57489,-0.00710496
181.9,4.43106,2.59928,-0.00727984
184.2,4.50221,2.61933,-0.00724768
186.5,4.57275,2.65469,-0.00879011
188.8,4.64311,2.67102,-0.00878244
191.1,4.71323,2.70825,-0.0101001
193.4,4.78365,2.7293,-0.0114202
195.7,4.85338,2.75899,-0.01142
198,4.92336,2.79633,-0.0114186
200.3,4.99319,2.82469,-0.0127403
202.6,5.06233,2.86343,-0.01274
204.9,5.13175,2.888,-0.012739
207.2,5.20124,2.91827,-0.0139699
209.5,5.27063,2.96043,-0.0127399
211.8,5.33967,2.98072,-0.0141117
214.1,5.40897,3.01783,-0.0154317
216.4,5.47809,3.05052,-0.0166453
218.7,5.54746,3.08248,-0.0180622
221,5.61633,3.11255,-0.0180115
223.3,5.68491,3.14017,-0.0193279
225.6,5.75388,3.17427,-0.0193018
227.9,5.82255,3.18283,-0.0206411
230.2,5.88991,3.20201,-0.0219134
232.5,5.95912,3.23431,-0.0234065
234.8,6.02828,3.25598,-0.0249462
237.1,6.09698,3.27002,-0.0261562
239.4,6.16523,3.29798,-0.0287522
241.7,6.23351,3.31354,-0.0286648
244,6.30218,3.32584,-0.0299675
246.3,6.37023,3.35589,-0.0325823
248.6,6.43853,3.371,-0.0340344
250.9,6.5064,3.39569,-0.0347898
253.2,6.57481,3.4128,-0.0366814
255.5,6.64305,3.43595,-0.0387111
257.8,6.71098,3.4559,-0.0418052
260.1,6.77906,3.49076,-0.0426961
262.4,6.84731,3.51009,-0.0469954
264.7,6.91551,3.53686,-0.051879
267,6.9833,3.56436,-0.055122
269.3,7.05166,3.58614,-0.0568918
271.6,7.11981,3.60547,-0.0622224
273.9,7.18757,3.61989,-0.067377
276.2,7.25563,3.62405,-0.0726687
278.5,7.32339,3.61993,-0.0765993
280.8,7.39134,3.60434,-0.0818227
283.1,7.45919,3.57541,-0.0872799
285.4,7.52746,3.55579,-0.0945468
287.7,7.59472,3.51111,-0.101471
290,7.66318,3.47173,-0.108604
292.3,7.73081,3.44532,-0.115156
294.6,7.79902,3.38664,-0.122313
296.9,7.86686,3.33064,-0.132679
299.2,7.9343,3.25914,-0.143626
301.5,8.00248,3.20365,-0.15416
303.8,8.07053,3.12077,-0.163448
306.1,8.13834,3.02614,-0.177161
308.4,8.20632,2.9039,-0.191004
310.7,8.27368,2.69742,-0.202208
313,8.34078,2.42508,-0.224642
315.3,8.40857,2.21423,-0.236178
317.6,8.47633,2.11181,-0.266823
319.9,8.54464,2.10244,-0.286509
322.2,8.61318,2.18731,-0.306189
324.5,8.68233,2.32795,-0.326734
326.8,8.75061,2.44797,-0.343767
329.1,8.81924,2.55852,-0.357481
331.4,8.88824,2.6392,-0.370356
333.7,8.9569,2.72086,-0.382561
336,9.02592,2.77303,-0.395385
338.3,9.09435,2.82384,-0.404484
340.6,9.1635,2.86602,-0.414677
342.9,9.23203,2.90494,-0.426143
345.2,9.30113,2.93776,-0.436264
347.5,9.37007,2.9786,-0.449576
349.8,9.43948,3.00582,-0.458443
352.1,9.50807,3.02822,-0.462975
354.4,9.57764,3.04297,-0.480902
356.7,9.64608,3.05653,-0.49452
359,9.7156,3.06512,-0.499018
361.3,9.78491,3.06576,-0.514635
363.6,9.85395,3.05861,-0.524628
365.9,9.92322,3.05851,-0.534757
368.2,9.99227,3.0441,-0.547262
370.5,10.0619,3.02567,-0.558073
372.8,10.131,3.01028,-0.568081
375.1,10.201,3.00564,-0.578997
377.4,10.2704,3.01417,-0.590663
379.7,10.3401,3.00257,-0.599776
382,10.4097,3.0077,-0.612462
384.3,10.4795,3.00457,-0.622179
386.6,10.5485,3.00515,-0.632179
388.9,10.6191,3.00574,-0.643668
391.2,10.6892,3.01167,-0.657754
393.5,10.7592,3.02718,-0.671396
395.8,10.8295,3.03982,-0.684411
398.1,10.8996,3.05947,-0.698222
400.4,10.9697,3.09467,-0.711263
402.7,11.0399,3.11073,-0.72729
405,11.1101,3.13829,-0.741773
407.3,11.1808,3.1527,-0.757941
409.6,11.2513,3.17814,-0.775077
411.9,11.3219,3.21041,-0.793425
414.2,11.3925,3.21876,-0.811694
416.5,11.4633,3.23469,-0.828885
418.8,11.5333,3.22921,-0.849083
421.1,11.6044,3.21734,-0.872976
423.4,11.6753,3.19645,-0.894031
425.7,11.7459,3.16077,-0.914865
428,11.8167,3.13141,-0.935517
430.3,11.8868,3.07434,-0.95852
432.6,11.9581,3.02366,-0.981123
434.9,12.0287,2.9413,-1.00361
437.2,12.0991,2.85892,-1.02592
439.5,12.1706,2.755,-1.04767
441.8,12.2414,2.65661,-1.06977
444.1,12.3121,2.54477,-1.08778
446.4,12.3832,2.44653,-1.10693
448.7,12.4539,2.32006,-1.12508
451,12.5251,2.19538,-1.14218
453.3,12.5964,2.09082,-1.15694
455.6,12.6675,1.97813,-1.17214
457.9,12.7388,1.87286,-1.18412
460.2,12.8098,1.79658,-1.19623
462.5,12.8815,1.70444,-1.20686
464.8,12.9529,1.61559,-1.21745
467.1,13.0244,1.5418,-1.22656
469.4,13.0962,1.47429,-1.23382
471.7,13.1678,1.4026,-1.24142
474,13.2396,1.34736,-1.24883
476.3,13.3114,1.26101,-1.25628
478.6,13.3832,1.22844,-1.26127
480.9,13.4553,1.18652,-1.26679
483.2,13.5274,1.16109,-1.27278
485.5,13.5994,1.13286,-1.27723
487.8,13.6717,1.11846,-1.28119
490.1,13.744,1.09927,-1.28435
492.4,13.8164,1.07414,-1.28765
494.7,13.8886,1.0564,-1.29248
497,13.9608,1.04587,-1.29667
499.3,14.0334,1.01525,-1.29986
501.6,14.1059,0.987764,-1.30209
503.9,14.1783,0.972599,-1.3066
506.2,14.2509,0.947389,-1.3096
508.5,14.3235,0.926789,-1.31279
510.8,14.3964,0.919665,-1.3148
513.1,14.469,0.899467,-1.31745
515.4,14.5417,0.887756,-1.32004
517.7,14.6149,0.879049,-1.32133
520,14.6872,0.868624,-1.32439
522.3,14.7603,0.852389,-1.3275
524.6,14.833,0.838641,-1.32953
526.9,14.9067,0.814493,-1.33162
529.2,14.9795,0.806636,-1.33421
531.5,15.0523,0.786315,-1.33618
533.8,15.1256,0.775477,-1.3381
536.1,15.1989,0.74792,-1.33973
538.4,15.2714,0.727671,-1.34245
540.7,15.3454,0.704725,-1.34503
543,15.4186,0.693821,-1.34507
545.3,15.4918,0.672441,-1.34683
547.6,15.5651,0.651382,-1.34874
549.9,15.6387,0.611415,-1.35008
552.2,15.7123,0.581813,-1.35159
554.5,15.7856,0.559612,-1.35495
556.8,15.8593,0.537684,-1.35522
559.1,15.9327,0.520724,-1.35661
561.4,16.0068,0.510417,-1.35914
563.7,16.0803,0.51127,-1.36026
566,16.1542,0.51194,-1.36028
568.3,16.2279,0.489779,-1.36061
570.6,16.3016,0.482292,-1.36389
572.9,16.3755,0.464253,-1.36608
575.2,16.449,0.463814,-1.36968
577.5,16.5232,0.450508,-1.37009
579.8,16.5979,0.451074,-1.37256
582.1,16.6718,0.450017,-1.37284
584.4,16.7462,0.445306,-1.37416
586.7,16.8202,0.441992,-1.37543
589,16.8946,0.425969,-1.37713
591.3,16.969,0.424656,-1.37876
593.6,17.0431,0.402573,-1.38008
595.9,17.1176,0.390377,-1.38131
598.2,17.1917,0.374054,-1.38273
600.5,17.2662,0.353268,-1.3855
602.8,17.3402,0.34463,-1.386
605.1,17.415,0.320318,-1.38601
607.4,17.4894,0.323508,-1.38758
609.7,17.5641,0.311848,-1.39013
612,17.6384,0.27352,-1.39152
614.3,17.7127,0.275776,-1.39378
616.6,17.7872,0.259473,-1.39369
618.9,17.8617,0.243204,-1.39368
621.2,17.9355,0.246185,-1.39302
623.5,18.0108,0.244225,-1.39435
625.8,18.0854,0.239311,-1.39532
628.1,18.1598,0.234614,-1.39679
630.4,18.2345,0.225541,-1.39885
632.7,18.3091,0.217946,-1.39971
635,18.3832,0.199332,-1.39962
637.3,18.4585,0.198027,-1.39998
639.6,18.5332,0.183909,-1.40229
641.9,18.6078,0.1617,-1.40093
644.2,18.6825,0.141241,-1.40127
646.5,18.7569,0.131781,-1.40122
648.8,18.832,0.154595,-1.40259
651.1,18.9065,0.123149,-1.40259
653.4,18.9811,0.106356,-1.40391
655.7,19.056,0.0856822,-1.4039
658,19.1308,0.0766795,-1.40244
660.3,19.2055,0.0578949,-1.40356
662.6,19.2805,0.0520654,-1.40621
664.9,19.3552,0.0323266,-1.40754
667.2,19.43,0.0164217,-1.40901
669.5,19.5043,0.00321819,-1.40903
671.8,19.5796,-0.0108027,-1.40895
674.1,19.654,-0.0271763,-1.40895
676.4,19.7289,-0.0532273,-1.41072
678.7,19.804,-0.0683709,-1.40833
681,19.8789,-0.0972135,-1.40641
683.3,19.9537,-0.10435,-1.40511
685.6,20.0288,-0.12336,-1.40561
687.9,20.1035,-0.153546,-1.40775
690.2,20.1787,-0.164096,-1.40775
692.5,20.2536,-0.189968,-1.40907
694.8,20.3287,-0.202373,-1.41356
697.1,20.4042,-0.228019,-1.4123
699.4,20.4791,-0.249413,-1.41242
701.7,20.5545,-0.269799,-1.41236
704,20.6291,-0.279281,-1.41236
706.3,20.7048,-0.300187,-1.41164
708.6,20.78,-0.320345,-1.4117
710.9,20.8556,-0.331428,-1.41233
713.2,20.9309,-0.337849,-1.41367
715.5,21.0063,-0.353357,-1.41367
717.8,21.0816,-0.35392,-1.41367
720.1,21.1573,-0.374153,-1.41348
722.4,21.2326,-0.378102,-1.41334
724.7,21.3085,-0.404736,-1.41495
727,21.3836,-0.405762,-1.41628
729.3,21.4595,-0.409986,-1.4163
731.6,21.5356,-0.412278,-1.4163
733.9,21.6109,-0.411101,-1.41501
736.2,21.6867,-0.415735,-1.41632
738.5,21.7627,-0.417215,-1.41764
740,21.812,-0.427109,-1.41764