Folder: fsri_materials_database/01_Data/Pressure_Treated_Deck/FTIR/IS/Deprecated

File: Pressure_Treated_Deck_IS_T_220926_R8.dpt
7497.03,0.03033
7473.89,0.02504
7450.74,0.02358
7427.6,0.03399
7404.45,0.02587
7381.31,0.03196
7358.16,0.02319
7335.02,0.03321
7311.87,0.02507
7288.73,0.02727
7265.58,0.02396
7242.44,0.02251
7219.29,0.01565
7196.15,0.02477
7173,0.02779
7149.86,0.02284
7126.71,0.02008
7103.57,0.02572
7080.42,0.02104
7057.28,0.02684
7034.13,0.02403
7010.99,0.02433
6987.84,0.01774
6964.7,0.02612
6941.55,0.02151
6918.41,0.02112
6895.26,0.02451
6872.12,0.02052
6848.97,0.02124
6825.83,0.02720
6802.68,0.02887
6779.54,0.02103
6756.39,0.02547
6733.25,0.02345
6710.1,0.02398
6686.96,0.02258
6663.82,0.02329
6640.67,0.02198
6617.53,0.02344
6594.38,0.02684
6571.24,0.02300
6548.09,0.02630
6524.95,0.02289
6501.8,0.02534
6478.66,0.02426
6455.51,0.02066
6432.37,0.01810
6409.22,0.02318
6386.08,0.02378
6362.93,0.02420
6339.79,0.02339
6316.64,0.02393
6293.5,0.02341
6270.35,0.02493
6247.21,0.02405
6224.06,0.02057
6200.92,0.02377
6177.77,0.01916
6154.63,0.02427
6131.48,0.02118
6108.34,0.02222
6085.19,0.02008
6062.05,0.02053
6038.9,0.02033
6015.76,0.02253
5992.61,0.02245
5969.47,0.02233
5946.32,0.02297
5923.18,0.02064
5900.03,0.02141
5876.89,0.02066
5853.74,0.02139
5830.6,0.02302
5807.45,0.02024
5784.31,0.02349
5761.16,0.02225
5738.02,0.02291
5714.87,0.02160
5691.73,0.02175
5668.58,0.02324
5645.44,0.02201
5622.29,0.02106
5599.15,0.02301
5576,0.02213
5552.86,0.02083
5529.71,0.02157
5506.57,0.02113
5483.42,0.02219
5460.28,0.02372
5437.13,0.02148
5413.99,0.02253
5390.84,0.02286
5367.7,0.02305
5344.55,0.02169
5321.41,0.02039
5298.26,0.02192
5275.12,0.02187
5251.97,0.01994
5228.83,0.02188
5205.68,0.02192
5182.54,0.02182
5159.39,0.02258
5136.25,0.02253
5113.1,0.02275
5089.96,0.02355
5066.81,0.02335
5043.67,0.02346
5020.52,0.02409
4997.38,0.02255
4974.23,0.02271
4951.09,0.02133
4927.94,0.02267
4904.8,0.02344
4881.65,0.02237
4858.51,0.02236
4835.36,0.02201
4812.22,0.02199
4789.07,0.02153
4765.93,0.02228
4742.78,0.02314
4719.64,0.02207
4696.49,0.02313
4673.35,0.02247
4650.2,0.02255
4627.06,0.02210
4603.92,0.02171
4580.77,0.02197
4557.63,0.02254
4534.48,0.02351
4511.34,0.02300
4488.19,0.02264
4465.05,0.02200
4441.9,0.02186
4418.76,0.02226
4395.61,0.02171
4372.47,0.02285
4349.32,0.02221
4326.18,0.02214
4303.03,0.02232
4279.89,0.02237
4256.74,0.02247
4233.6,0.02247
4210.45,0.02299
4187.31,0.02220
4164.16,0.02339
4141.02,0.02270
4117.87,0.02214
4094.73,0.02300
4071.58,0.02266
4048.44,0.02270
4025.29,0.02211
4002.15,0.02286
3979,0.02190
3955.86,0.02243
3932.71,0.02258
3909.57,0.02298
3886.42,0.02302
3863.28,0.02278
3840.13,0.02299
3816.99,0.02276
3793.84,0.02232
3770.7,0.02269
3747.55,0.02291
3724.41,0.02292
3701.26,0.02272
3678.12,0.02248
3654.97,0.02225
3631.83,0.02130
3608.68,0.02159
3585.54,0.02108
3562.39,0.02147
3539.25,0.02109
3516.1,0.02106
3492.96,0.02079
3469.81,0.02093
3446.67,0.02100
3423.52,0.02035
3400.38,0.01992
3377.23,0.01988
3354.09,0.02068
3330.94,0.02022
3307.8,0.01966
3284.65,0.02051
3261.51,0.02018
3238.36,0.02094
3215.22,0.02110
3192.07,0.02054
3168.93,0.02099
3145.78,0.02103
3122.64,0.02060
3099.49,0.02062
3076.35,0.02096
3053.2,0.02055
3030.06,0.02079
3006.91,0.02035
2983.77,0.01992
2960.62,0.01983
2937.48,0.01941
2914.33,0.02027
2891.19,0.02069
2868.04,0.02043
2844.9,0.02098
2821.75,0.02076
2798.61,0.02178
2775.46,0.02135
2752.32,0.02115
2729.17,0.02171
2706.03,0.02160
2682.88,0.02160
2659.74,0.02140
2636.59,0.02142
2613.45,0.02119
2590.3,0.02126
2567.16,0.02159
2544.02,0.02106
2520.87,0.02115
2497.73,0.02164
2474.58,0.02153
2451.44,0.02098
2428.29,0.02109
2405.15,0.02124
2382,0.02130
2358.86,0.02110
2335.71,0.02089
2312.57,0.02108
2289.42,0.02076
2266.28,0.02087
2243.13,0.02124
2219.99,0.02103
2196.84,0.02111
2173.7,0.02083
2150.55,0.02103
2127.41,0.02101
2104.26,0.02069
2081.12,0.02073
2057.97,0.02086
2034.83,0.02118
2011.68,0.02072
1988.54,0.02087
1965.39,0.02072
1942.25,0.02088
1919.1,0.02045
1895.96,0.02031
1872.81,0.02065
1849.67,0.01993
1826.52,0.02006
1803.38,0.01993
1780.23,0.01883
1757.09,0.01769
1733.94,0.01964
1710.8,0.02046
1687.65,0.01897
1664.51,0.01874
1641.36,0.01861
1618.22,0.01872
1595.07,0.01895
1571.93,0.01832
1548.78,0.01820
1525.64,0.01859
1502.49,0.01857
1479.35,0.01861
1456.2,0.01842
1433.06,0.01843
1409.91,0.01854
1386.77,0.01820
1363.62,0.01772
1340.48,0.01747
1317.33,0.01721
1294.19,0.01784
1271.04,0.01890
1247.9,0.02009
1224.75,0.01952
1201.61,0.01844
1178.46,0.01777
1155.32,0.01734
1132.17,0.01825
1109.03,0.01839
1085.88,0.01863
1062.74,0.01980
1039.59,0.01956
1016.45,0.01900
993.304,0.02101
970.159,0.02048
947.014,0.02039
923.869,0.01894
900.724,0.01901
877.579,0.01886
854.434,0.01842
831.289,0.01794
808.144,0.01939
784.999,0.01849
761.854,0.01722
738.709,0.01809
715.565,0.01812
692.42,0.01697
669.275,0.01772
646.13,0.01644
622.985,0.01521
599.84,0.01696