Folder: fsri_materials_database/01_Data/Kevlar_Nomex_Turnout_Gear_Thermal_Liner/STA/N2/10K_min

File: Kevlar_Nomex_Turnout_Gear_Thermal_Liner_STA_N2_10KData_240522_R1.csv
Temp./C,Time/min,DSC/(mW/mg),Mass loss/mg
60.0,0.0,0.827504,-0.0230766
62.5,0.279143,0.910647,-0.023003
65,0.55087,0.97105,-0.0234222
67.5,0.820522,1.02809,-0.0256777
70,1.08567,1.08282,-0.024325
72.5,1.3471,1.11933,-0.0274401
75,1.60887,1.17642,-0.0298111
77.5,1.86687,1.21222,-0.02887
80,2.12449,1.24236,-0.032656
82.5,2.37475,1.25792,-0.0331392
85,2.63244,1.27043,-0.03348
87.5,2.8829,1.27897,-0.0365016
90,3.1308,1.28483,-0.0373431
92.5,3.3786,1.27091,-0.038731
95,3.62593,1.25276,-0.04204
97.5,3.87019,1.22727,-0.0423698
100,4.11422,1.20224,-0.0423704
102.5,4.35757,1.18095,-0.04435
105,4.60096,1.1472,-0.0450408
107.5,4.84359,1.12287,-0.0466
110,5.08563,1.09984,-0.0463155
112.5,5.32838,1.08101,-0.0476396
115,5.57128,1.07224,-0.0466571
117.5,5.81166,1.0562,-0.0481954
120,6.05375,1.04778,-0.0495101
122.5,6.29424,1.03809,-0.049111
125,6.53474,1.0375,-0.05016
127.5,6.77685,1.03695,-0.0488446
130,7.01739,1.04092,-0.0512594
132.5,7.25783,1.04581,-0.0501887
135,7.49738,1.0457,-0.0514799
137.5,7.73831,1.06061,-0.05148
140,7.97767,1.05542,-0.052143
142.5,8.21699,1.06381,-0.05149
145,8.45702,1.05771,-0.0514978
147.5,8.69637,1.0668,-0.0514835
150,8.93715,1.06812,-0.0537775
152.5,9.17433,1.07405,-0.05247
155,9.41374,1.08316,-0.0537641
157.5,9.65288,1.09349,-0.0531235
160,9.89066,1.0973,-0.0531299
162.5,10.1286,1.1064,-0.0528032
165,10.3656,1.10208,-0.0538644
167.5,10.6022,1.1128,-0.0537863
170,10.8433,1.11037,-0.05378
172.5,11.0815,1.11524,-0.0550999
175,11.3201,1.12723,-0.0551057
177.5,11.5596,1.13261,-0.0551151
180,11.7972,1.13752,-0.0564301
182.5,12.036,1.14208,-0.05642
185,12.2735,1.14454,-0.05642
187.5,12.5125,1.1572,-0.0564417
190,12.7506,1.15349,-0.0573285
192.5,12.9874,1.16077,-0.05906
195,13.2245,1.17361,-0.0617118
197.5,13.4635,1.18101,-0.06301
200,13.7002,1.2014,-0.0633083
202.5,13.9374,1.21157,-0.0673
205,14.1752,1.21699,-0.0696
207.5,14.4129,1.23308,-0.0710875
210,14.6504,1.25565,-0.0745018
212.5,14.8892,1.28259,-0.0799018
215,15.1279,1.30913,-0.0825386
217.5,15.3663,1.3446,-0.0893625
220,15.6053,1.40498,-0.0987765
222.5,15.8444,1.46485,-0.108183
225,16.0819,1.41405,-0.117683
227.5,16.3186,1.28742,-0.129094
230,16.5549,1.23393,-0.13896
232.5,16.7924,1.18659,-0.149561
235,17.0274,1.14515,-0.157966
237.5,17.2682,1.12193,-0.161954
240,17.5053,1.11696,-0.164559
242.5,17.743,1.12744,-0.16588
245,17.9802,1.13306,-0.165857
247.5,18.2198,1.14158,-0.166209
250,18.4562,1.1647,-0.16884
252.5,18.6963,1.28046,-0.171475
255,18.9349,1.41519,-0.17214
257.5,19.1727,1.32447,-0.176066
260,19.4091,1.2601,-0.179795
262.5,19.6489,1.24651,-0.184206
265,19.888,1.28496,-0.190822
267.5,20.1275,1.35503,-0.19782
270,20.3663,1.43408,-0.207007
272.5,20.6065,1.54108,-0.218574
275,20.8477,1.65896,-0.233399
277.5,21.0888,1.78486,-0.25192
280,21.3269,1.85769,-0.27122
282.5,21.5691,1.91104,-0.295495
285,21.8078,1.94313,-0.319717
287.5,22.0483,1.94626,-0.348769
290,22.2881,1.95056,-0.379728
292.5,22.5288,1.90482,-0.412791
295,22.7682,1.83932,-0.446494
297.5,23.0063,1.7625,-0.479941
300,23.2456,1.67218,-0.511321
302.5,23.4851,1.56633,-0.543
305,23.7234,1.45194,-0.568498
307.5,23.9621,1.34223,-0.593757
310,24.2003,1.22053,-0.6131
312.5,24.4396,1.11081,-0.631999
315,24.6781,1.01543,-0.645672
317.5,24.9166,0.944047,-0.65414
320,25.1575,0.898741,-0.660558
322.5,25.3969,0.878557,-0.665623
325,25.6372,0.856375,-0.67153
327.5,25.8776,0.841057,-0.67318
330,26.1185,0.836029,-0.677211
332.5,26.359,0.840156,-0.678848
335,26.6016,0.831177,-0.682408
337.5,26.8422,0.813094,-0.685379
340,27.0851,0.79918,-0.687151
342.5,27.3264,0.783046,-0.68932
345,27.5694,0.773549,-0.692044
347.5,27.8114,0.758255,-0.694506
350,28.0549,0.740202,-0.69591
352.5,28.2974,0.741059,-0.69953
355,28.5405,0.726887,-0.704146
357.5,28.7825,0.733745,-0.705098
360,29.0257,0.739651,-0.708627
362.5,29.2685,0.745236,-0.710443
365,29.511,0.754014,-0.711504
367.5,29.7526,0.754192,-0.71545
370,29.9961,0.770518,-0.718749
372.5,30.2392,0.779877,-0.721676
375,30.4817,0.78996,-0.725584
377.5,30.7262,0.806264,-0.725654
380,30.9696,0.823022,-0.73027
382.5,31.2133,0.835752,-0.734218
385,31.4578,0.847084,-0.73543
387.5,31.703,0.856574,-0.742548
390,31.9462,0.872374,-0.744119
392.5,32.1918,0.893833,-0.748055
395,32.4374,0.908792,-0.75233
397.5,32.6839,0.934505,-0.756372
400,32.9289,0.971806,-0.759029
402.5,33.1754,1.02008,-0.763007
405,33.4179,1.06456,-0.766914
407.5,33.6663,1.11697,-0.771445
410,33.912,1.17389,-0.777467
412.5,34.1575,1.24625,-0.78275
415,34.4034,1.32152,-0.788019
417.5,34.6507,1.38605,-0.792704
420,34.8977,1.44292,-0.800564
422.5,35.1434,1.47661,-0.809642
425,35.3896,1.48705,-0.818079
427.5,35.6358,1.46835,-0.824682
430,35.8807,1.42696,-0.834528
432.5,36.1263,1.3806,-0.846258
435,36.3721,1.32136,-0.855612
437.5,36.6174,1.26284,-0.867825
440,36.8646,1.21036,-0.880989
442.5,37.1105,1.17219,-0.895231
445,37.3583,1.14412,-0.910392
447.5,37.6041,1.12531,-0.923471
450,37.8505,1.11006,-0.94122
452.5,38.0986,1.11173,-0.95831
455,38.3462,1.09638,-0.97519
457.5,38.5929,1.08334,-0.994328
460,38.8408,1.06443,-1.01193
462.5,39.0896,1.04434,-1.02836
465,39.3356,1.01309,-1.04941
467.5,39.5851,0.98823,-1.06443
470,39.8335,0.956263,-1.08351
472.5,40.0803,0.917826,-1.09773
475,40.3285,0.881327,-1.11345
477.5,40.5759,0.83355,-1.12842
480,40.8252,0.800656,-1.14087
482.5,41.0722,0.768508,-1.15239
485,41.3206,0.73581,-1.16558
487.5,41.5698,0.703939,-1.17709
490,41.819,0.687926,-1.18739
492.5,42.0672,0.670349,-1.19959
495,42.3171,0.658576,-1.21134
497.5,42.5648,0.64783,-1.22084
500,42.8143,0.63393,-1.23352
502.5,43.0633,0.626418,-1.24531
505,43.3103,0.618024,-1.2571
507.5,43.56,0.601623,-1.26881
510,43.8097,0.591591,-1.27983
512.5,44.0577,0.588219,-1.28919
515,44.3066,0.57089,-1.30096
517.5,44.5548,0.590569,-1.31438
520,44.8044,0.594493,-1.32708
522.5,45.0546,0.590258,-1.33828
525,45.3063,0.599984,-1.35145
527.5,45.5572,0.61905,-1.36634
530,45.8079,0.631783,-1.37911
532.5,46.06,0.660218,-1.39296
535,46.3112,0.689845,-1.40822
537.5,46.5614,0.721709,-1.42451
540,46.813,0.760127,-1.44124
542.5,47.0623,0.797241,-1.45891
545,47.3139,0.838965,-1.47633
547.5,47.5674,0.899981,-1.49894
550,47.8171,0.939248,-1.51601
552.5,48.0681,0.995106,-1.54204
555,48.3191,1.03775,-1.56718
557.5,48.5703,1.09731,-1.59439
560,48.8215,1.15912,-1.62532
562.5,49.0751,1.2307,-1.66273
565,49.3276,1.31692,-1.70144
567.5,49.5808,1.41539,-1.7439
570,49.8344,1.494,-1.7894
572.5,50.0867,1.57,-1.83828
575,50.3387,1.56383,-1.89222
577.5,50.5897,1.48238,-1.94488
580,50.8396,1.27391,-1.99387
582.5,51.0871,0.926191,-2.03497
585,51.3346,0.53564,-2.06682
587.5,51.5819,0.20476,-2.08486
590,51.8307,0.0561397,-2.09948
592.5,52.0816,-0.00631377,-2.10926
595,52.3336,-0.0282012,-2.11862
597.5,52.5845,-0.0313923,-2.12341
600,52.8367,-0.0136017,-2.13254
602.5,53.089,-0.00111735,-2.13661
605,53.3405,0.00342436,-2.14195
607.5,53.5928,0.0227042,-2.14946
610,53.8445,0.0388453,-2.15441
612.5,54.0963,0.0387407,-2.15976
615,54.3482,0.0493926,-2.1636
617.5,54.6002,0.064853,-2.16767
620,54.852,0.0876512,-2.17038
622.5,55.1041,0.10144,-2.17557
625,55.3565,0.117533,-2.18084
627.5,55.6081,0.138268,-2.18216
630,55.8605,0.161211,-2.18664
632.5,56.1125,0.19731,-2.19035
635,56.3655,0.23063,-2.19368
637.5,56.6185,0.249421,-2.19501
640,56.8717,0.266293,-2.20027
642.5,57.1262,0.294569,-2.20158
645,57.3789,0.301996,-2.20564
647.5,57.6317,0.305628,-2.2084
650,57.8861,0.309764,-2.21223
652.5,58.1387,0.31135,-2.21487
655,58.3917,0.30894,-2.21754
657.5,58.6446,0.301479,-2.22146
660,58.8969,0.291458,-2.2241
662.5,59.1491,0.285457,-2.22673
665,59.4002,0.283213,-2.22805
667.5,59.6525,0.273718,-2.23205
670,59.904,0.25353,-2.23398
672.5,60.1566,0.254957,-2.23794
675,60.4092,0.243771,-2.2399
677.5,60.6613,0.240869,-2.24219
680,60.9143,0.232196,-2.24242
682.5,61.1686,0.216508,-2.24824
685,61.4229,0.208006,-2.25089
687.5,61.6777,0.202408,-2.25318
690,61.9318,0.196244,-2.25732
692.5,62.1876,0.183543,-2.25868
695,62.4418,0.173033,-2.26032
697.5,62.6958,0.151773,-2.26289
700,62.9498,0.13078,-2.26658
702.5,63.2044,0.124956,-2.2679
705,63.4584,0.101585,-2.26995
707.5,63.7119,0.078017,-2.27316
710,63.9655,0.0795966,-2.27573
712.5,64.2196,0.0628538,-2.27874
715,64.4732,0.0547461,-2.28144
717.5,64.7266,0.0416809,-2.28402
720,64.9818,0.0267306,-2.28631
722.5,65.2337,0.0188803,-2.28887
725,65.4896,0.00484631,-2.29227
727.5,65.7444,-0.0185093,-2.29358
730,65.9975,-0.0206612,-2.29622
732.5,66.2518,-0.0444379,-2.29776
735,66.5064,-0.0620893,-2.30135
737.5,66.7606,-0.0854832,-2.30431
740,67.0144,-0.10052,-2.30822
742.5,67.2717,-0.107322,-2.30897
745,67.5264,-0.110872,-2.31165
747.5,67.7834,-0.118165,-2.31389
750,68.0401,-0.12844,-2.31533
752.5,68.2967,-0.145672,-2.31796
755,68.5515,-0.158305,-2.31928
757.5,68.807,-0.152818,-2.32104
760,69.0636,-0.162317,-2.32421
762.5,69.3187,-0.171647,-2.32553
765,69.5748,-0.165846,-2.32882
767.5,69.8296,-0.177321,-2.32882
770,70.086,-0.173273,-2.33157
772.5,70.3397,-0.194007,-2.33289
775,70.5952,-0.188131,-2.33553
777.5,70.8538,-0.182976,-2.33814
780,71.1109,-0.191564,-2.33729
782.5,71.368,-0.188827,-2.33816
785,71.6245,-0.191317,-2.34067
787.5,71.8818,-0.192181,-2.34115
790,72.1406,-0.197114,-2.34409