Folder: fsri_materials_database/01_Data/Helmet_Flap/STA/N2/10K_min (part 2)

File: Helmet_Flap_STA_N2_10KData_250516_R3.csv
Temp./C,Time/min,DSC/(mW/mg),Mass loss/mg
40.0,0.0,0.899509,-0.0986794
42.6,0.345789,1.0165,-0.105752
45.2,0.67493,1.11909,-0.110054
47.8,0.991572,1.22755,-0.115491
50.4,1.30129,1.32569,-0.119737
53,1.60127,1.4301,-0.126073
55.6,1.8921,1.52967,-0.130201
58.2,2.18199,1.63382,-0.134156
60.8,2.46332,1.71245,-0.141702
63.4,2.74077,1.78508,-0.146107
66,3.01271,1.84997,-0.15094
68.6,3.28354,1.89401,-0.156539
71.2,3.55217,1.92598,-0.160498
73.8,3.81748,1.93335,-0.167086
76.4,4.08107,1.93045,-0.17235
79,4.34157,1.92114,-0.176316
81.6,4.60235,1.88394,-0.181526
84.2,4.85988,1.85314,-0.18684
86.8,5.11796,1.80145,-0.190797
89.4,5.37431,1.74953,-0.193426
92,5.62743,1.69067,-0.19734
94.6,5.87968,1.61948,-0.200012
97.2,6.13314,1.54909,-0.201455
99.8,6.38359,1.49481,-0.203959
102.4,6.63269,1.44033,-0.205316
105,6.88059,1.37831,-0.206599
107.6,7.12954,1.32949,-0.206619
110.2,7.37837,1.27755,-0.209333
112.8,7.62827,1.24485,-0.208917
115.4,7.87552,1.22093,-0.207928
118,8.12403,1.19595,-0.205409
120.6,8.37291,1.18755,-0.205452
123.2,8.62205,1.18343,-0.200599
125.8,8.87071,1.17037,-0.196005
128.4,9.1181,1.16169,-0.188976
131,9.36527,1.15922,-0.187384
133.6,9.61173,1.14919,-0.1975
136.2,9.85581,1.15523,-0.211571
138.8,10.1054,1.15789,-0.22889
141.4,10.3533,1.16162,-0.223316
144,10.5968,1.17696,-0.22056
146.6,10.8436,1.19155,-0.214881
149.2,11.0887,1.1984,-0.210327
151.8,11.3343,1.21686,-0.219014
154.4,11.5795,1.22003,-0.214619
157,11.8234,1.23395,-0.218036
159.6,12.0687,1.23571,-0.228371
162.2,12.3132,1.2356,-0.235676
164.8,12.5583,1.25321,-0.234155
167.4,12.8025,1.25707,-0.231963
170,13.0479,1.26752,-0.234932
172.6,13.2935,1.28094,-0.227261
175.2,13.5396,1.27327,-0.228321
177.8,13.7822,1.29242,-0.232304
180.4,14.0295,1.28696,-0.242622
183,14.2746,1.27634,-0.235074
185.6,14.5196,1.284,-0.240091
188.2,14.764,1.29393,-0.237437
190.8,15.0087,1.28741,-0.237448
193.4,15.2523,1.28811,-0.23558
196,15.4972,1.28162,-0.24118
198.6,15.741,1.27662,-0.24158
201.2,15.9862,1.26525,-0.245197
203.8,16.2308,1.26471,-0.242525
206.4,16.4752,1.2623,-0.240927
209,16.7194,1.25988,-0.237404
211.6,16.9645,1.24141,-0.254469
214.2,17.2087,1.2373,-0.250408
216.8,17.4539,1.21669,-0.256648
219.4,17.6983,1.19293,-0.262525
222,17.9427,1.1901,-0.260833
224.6,18.1876,1.17475,-0.262963
227.2,18.4319,1.16259,-0.266882
229.8,18.677,1.15585,-0.271809
232.4,18.922,1.14328,-0.275734
235,19.1658,1.13722,-0.27864
237.6,19.411,1.13233,-0.288991
240.2,19.6578,1.12499,-0.296403
242.8,19.9032,1.1313,-0.302603
245.4,20.1495,1.1405,-0.30574
248,20.3948,1.15779,-0.31474
250.6,20.6407,1.22685,-0.318349
253.2,20.8912,1.53777,-0.327154
255.8,21.1393,1.72169,-0.333691
258.4,21.3814,1.40149,-0.33891
261,21.627,1.34238,-0.346469
263.6,21.8712,1.18669,-0.353717
266.2,22.1158,1.08607,-0.35997
268.8,22.3619,1.02642,-0.368896
271.4,22.6068,0.985875,-0.371588
274,22.8527,0.947291,-0.386116
276.6,23.0988,0.897092,-0.398067
279.2,23.3461,0.83891,-0.405676
281.8,23.5924,0.762516,-0.416413
284.4,23.8385,0.686329,-0.433437
287,24.0846,0.60741,-0.436881
289.6,24.3293,0.489738,-0.44615
292.2,24.5761,0.350492,-0.457009
294.8,24.8203,0.145645,-0.473549
297.4,25.0647,-0.145554,-0.490161
300,25.3078,-0.536262,-0.51474
302.6,25.548,-1.07173,-0.549455
305.2,25.7865,-1.59474,-0.60605
307.8,26.0344,-1.67968,-0.702933
310.4,26.2874,-1.23898,-0.827635
313,26.5408,-0.702785,-0.981097
315.6,26.7936,-0.362626,-1.12284
318.2,27.0445,-0.168374,-1.26511
320.8,27.2948,-0.0506989,-1.39339
323.4,27.5443,0.126147,-1.5029
326,27.7975,0.3916,-1.5844
328.6,28.0504,0.636007,-1.63621
331.2,28.3017,0.766268,-1.6613
333.8,28.5523,0.793132,-1.67325
336.4,28.8012,0.758885,-1.68575
339,29.0517,0.711045,-1.69647
341.6,29.3022,0.677792,-1.70454
344.2,29.551,0.647785,-1.71217
346.8,29.8024,0.620818,-1.72458
349.4,30.0519,0.610046,-1.73194
352,30.303,0.590365,-1.74009
354.6,30.5533,0.584715,-1.74668
357.2,30.8043,0.586487,-1.75608
359.8,31.0564,0.573721,-1.76339
362.4,31.3071,0.571472,-1.77387
365,31.5591,0.574988,-1.78396
367.6,31.8106,0.589683,-1.79654
370.2,32.0623,0.597394,-1.80376
372.8,32.3128,0.616446,-1.81321
375.4,32.5643,0.648297,-1.82295
378,32.8157,0.672839,-1.83875
380.6,33.068,0.690713,-1.84786
383.2,33.3208,0.705822,-1.85756
385.8,33.5732,0.710615,-1.87059
388.4,33.8249,0.718318,-1.88503
391,34.0769,0.714009,-1.89527
393.6,34.3298,0.725885,-1.9089
396.2,34.5828,0.709475,-1.92338
398.8,34.8354,0.704479,-1.92943
401.4,35.088,0.693155,-1.93468
404,35.3411,0.690874,-1.95044
406.6,35.5946,0.682293,-1.96133
409.2,35.8473,0.678571,-1.97127
411.8,36.1011,0.664641,-1.98353
414.4,36.3545,0.65248,-1.99508
417,36.6076,0.639549,-2.00287
419.6,36.8597,0.63351,-2.01483
422.2,37.1125,0.607174,-2.0262
424.8,37.3676,0.59121,-2.03756
427.4,37.6216,0.575992,-2.04803
430,37.8745,0.562344,-2.05494
432.6,38.1284,0.551923,-2.0658
435.2,38.382,0.543783,-2.07716
437.8,38.6361,0.548237,-2.08879
440.4,38.8919,0.552259,-2.09706
443,39.1434,0.550182,-2.10813
445.6,39.401,0.548632,-2.11664
448.2,39.6559,0.55646,-2.12824
450.8,39.9102,0.553612,-2.13632
453.4,40.1647,0.565069,-2.14328
456,40.4204,0.578218,-2.15441
458.6,40.6763,0.569719,-2.16046
461.2,40.9312,0.57729,-2.17426
463.8,41.1872,0.581146,-2.18238
466.4,41.4421,0.595511,-2.18945
469,41.6967,0.603661,-2.19795
471.6,41.9519,0.606654,-2.20582
474.2,42.209,0.6253,-2.21409
476.8,42.4642,0.631183,-2.22266
479.4,42.7205,0.648727,-2.23085
482,42.9766,0.660357,-2.23398
484.6,43.234,0.669998,-2.24232
487.2,43.4906,0.692476,-2.24929
489.8,43.7471,0.701203,-2.25639
492.4,44.0042,0.715994,-2.26235
495,44.2609,0.723907,-2.27017
497.6,44.5188,0.737541,-2.27716
500.2,44.7754,0.739336,-2.28082
502.8,45.0331,0.744841,-2.2849
505.4,45.2904,0.756781,-2.29236
508,45.5485,0.766891,-2.29994
510.6,45.8063,0.773543,-2.30542
513.2,46.0635,0.772519,-2.31032
515.8,46.3215,0.79257,-2.31498
518.4,46.5791,0.80146,-2.32089
521,46.8378,0.809854,-2.32815
523.6,47.0959,0.824766,-2.33123
526.2,47.3529,0.822674,-2.3384
528.8,47.6103,0.822532,-2.34183
531.4,47.8699,0.81663,-2.34736
534,48.1273,0.819634,-2.35308
536.6,48.3857,0.814373,-2.35705
539.2,48.6433,0.81051,-2.3624
541.8,48.9004,0.80983,-2.36778
544.4,49.1591,0.79607,-2.37372
547,49.4165,0.794965,-2.37766
549.6,49.6761,0.792421,-2.38063
552.2,49.934,0.783783,-2.38577
554.8,50.1929,0.779973,-2.38985
557.4,50.4511,0.781444,-2.39379
560,50.7108,0.774639,-2.39599
562.6,50.9695,0.778044,-2.40104
565.2,51.2284,0.767988,-2.4049
567.8,51.487,0.778565,-2.40874
570.4,51.7464,0.773407,-2.41005
573,52.0064,0.782709,-2.41631
575.6,52.2654,0.785239,-2.41894
578.2,52.523,0.790777,-2.42158
580.8,52.7842,0.78439,-2.42447
583.4,53.0449,0.786336,-2.42815
586,53.3051,0.780497,-2.43077
588.6,53.5647,0.772142,-2.43313
591.2,53.8242,0.775123,-2.43615
593.8,54.0831,0.771008,-2.43838
596.4,54.3433,0.783295,-2.44155
599,54.6041,0.787164,-2.44496
601.6,54.8639,0.78733,-2.44542
604.2,55.1224,0.789642,-2.45023
606.8,55.3835,0.786562,-2.45155
609.4,55.6441,0.800824,-2.45451
612,55.9037,0.803666,-2.45718
614.6,56.1623,0.81586,-2.45978
617.2,56.4222,0.820543,-2.46207
619.8,56.6834,0.829721,-2.46308
622.4,56.9422,0.835396,-2.46742
625,57.2044,0.850763,-2.46879
627.6,57.4666,0.842361,-2.47142
630.2,57.727,0.843866,-2.47406
632.8,57.9883,0.850335,-2.47603
635.4,58.2495,0.847013,-2.47735
638,58.5109,0.847097,-2.47998
640.6,58.7709,0.841565,-2.4813
643.2,59.0335,0.835085,-2.48525
645.8,59.2938,0.838643,-2.48657
648.4,59.5558,0.847483,-2.48823
651,59.8163,0.838425,-2.48855
653.6,60.0766,0.838762,-2.49251
656.2,60.3383,0.848555,-2.49245
658.8,60.5992,0.842663,-2.49569
661.4,60.8607,0.838095,-2.49777
664,61.1229,0.827261,-2.49908
666.6,61.3833,0.827223,-2.50172
669.2,61.6443,0.823166,-2.50376
671.8,61.9057,0.816381,-2.50699
674.4,62.1663,0.806601,-2.5083
677,62.4292,0.804854,-2.51226
679.6,62.6921,0.80435,-2.51367
682.2,62.9539,0.801876,-2.5149
684.8,63.2147,0.79824,-2.51753
687.4,63.477,0.793176,-2.52017
690,63.7394,0.788162,-2.52151
692.6,64.0009,0.787808,-2.52313
695.2,64.264,0.781867,-2.52476
697.8,64.527,0.760415,-2.52741
700.4,64.7893,0.755962,-2.53004
703,65.052,0.744688,-2.53103
705.6,65.3146,0.741669,-2.53366
708.2,65.5784,0.732893,-2.53498
710.8,65.8407,0.725137,-2.53624
713.4,66.1052,0.711653,-2.54034
716,66.3662,0.681322,-2.54047
718.6,66.6293,0.653924,-2.54411
721.2,66.8926,0.631406,-2.54674
723.8,67.154,0.612839,-2.54789
726.4,67.417,0.582017,-2.54936
729,67.6797,0.579268,-2.55134
731.6,67.9423,0.55791,-2.55331
734.2,68.2054,0.548288,-2.55531
736.8,68.4679,0.526949,-2.55792
739.4,68.7304,0.519455,-2.56167
742,68.994,0.500979,-2.56197
744.6,69.256,0.498871,-2.56463
747.2,69.5191,0.483227,-2.56594
749.8,69.7825,0.4769,-2.56792
752.4,70.0449,0.469762,-2.56911
755,70.3076,0.45836,-2.57055
757.6,70.5713,0.447056,-2.57319
760.2,70.8341,0.442935,-2.57426
762.8,71.0974,0.428273,-2.57838
765.4,71.361,0.415025,-2.58043
768,71.6254,0.388342,-2.58275
770.6,71.8893,0.369744,-2.58438
773.2,72.1505,0.344468,-2.58569
775.8,72.4149,0.339547,-2.58702
778.4,72.6787,0.33044,-2.58702
781,72.9421,0.319667,-2.58834
783.6,73.2056,0.316125,-2.58975
786.2,73.4686,0.314951,-2.59383
788.8,73.7322,0.301825,-2.59516
790,73.8527,0.298604,-2.59493

File: Helmet_Flap_STA_N2_10KData_250528_R4.csv
Temp./C,Time/min,DSC/(mW/mg),Mass loss/mg
40.0,0.0,1.0568,-0.109585
42.6,0.34649,1.18511,-0.112666
45.2,0.677832,1.29721,-0.115737
47.8,0.996765,1.41317,-0.120944
50.4,1.30755,1.54241,-0.123331
53,1.60917,1.66266,-0.129553
55.6,1.90189,1.77153,-0.134066
58.2,2.19001,1.8817,-0.13898
60.8,2.47364,1.98549,-0.145652
63.4,2.75181,2.0594,-0.150966
66,3.0254,2.1293,-0.156449
68.6,3.29614,2.18679,-0.160911
71.2,3.56213,2.21165,-0.171387
73.8,3.82766,2.24209,-0.173932
76.4,4.09095,2.23465,-0.183218
79,4.35362,2.21482,-0.189273
81.6,4.61372,2.18161,-0.19256
84.2,4.87189,2.14175,-0.197911
86.8,5.12862,2.09433,-0.204293
89.4,5.38409,2.03656,-0.208754
92,5.63696,1.96494,-0.207932
94.6,5.88821,1.91023,-0.212844
97.2,6.13958,1.83082,-0.21656
99.8,6.39093,1.78026,-0.21928
102.4,6.64029,1.70697,-0.22088
105,6.88824,1.65925,-0.223921
107.6,7.13802,1.61343,-0.223826
110.2,7.38526,1.55923,-0.22483
112.8,7.63334,1.51484,-0.22747
115.4,7.88339,1.47206,-0.23021
118,8.13075,1.45211,-0.22758
120.6,8.37886,1.42804,-0.227577
123.2,8.62691,1.41374,-0.230153
125.8,8.87364,1.39273,-0.23027
128.4,9.12164,1.39194,-0.229449
131,9.3687,1.40035,-0.231531
133.6,9.61502,1.40041,-0.233838
136.2,9.86193,1.4055,-0.232418
138.8,10.1092,1.4248,-0.23242
141.4,10.3565,1.43586,-0.23274
144,10.6,1.45057,-0.23274
146.6,10.8453,1.46396,-0.236497
149.2,11.0915,1.48145,-0.23362
151.8,11.3373,1.49618,-0.235255
154.4,11.5822,1.50755,-0.23626
157,11.8272,1.53328,-0.23461
159.6,12.0715,1.53886,-0.23757
162.2,12.3167,1.55356,-0.234957
164.8,12.5611,1.56819,-0.23889
167.4,12.8063,1.58565,-0.238208
170,13.05,1.59975,-0.23955
172.6,13.2959,1.6068,-0.239211
175.2,13.5401,1.63238,-0.241159
177.8,13.7854,1.6486,-0.243295
180.4,14.0294,1.65589,-0.24349
183,14.2739,1.66229,-0.243516
185.6,14.5188,1.67283,-0.244467
188.2,14.7632,1.67914,-0.245808
190.8,15.0079,1.6875,-0.24515
193.4,15.2517,1.69298,-0.24779
196,15.4963,1.69783,-0.248111
198.6,15.7408,1.7122,-0.247438
201.2,15.9832,1.71391,-0.248121
203.8,16.228,1.72695,-0.25075
206.4,16.4721,1.72227,-0.256214
209,16.716,1.72993,-0.253711
211.6,16.9599,1.72607,-0.255899
214.2,17.2039,1.72263,-0.257216
216.8,17.4472,1.72871,-0.261171
219.4,17.6929,1.71811,-0.262819
222,17.9363,1.7208,-0.266296
224.6,18.1816,1.70889,-0.27072
227.2,18.4265,1.70646,-0.274647
229.8,18.6708,1.6954,-0.280567
232.4,18.9147,1.6812,-0.282646
235,19.1587,1.67301,-0.28785
237.6,19.404,1.66562,-0.294554
240.2,19.6499,1.66655,-0.297581
242.8,19.894,1.66278,-0.308353
245.4,20.1399,1.67672,-0.314968
248,20.3865,1.69402,-0.322482
250.6,20.6317,1.73721,-0.328926
253.2,20.8805,1.99983,-0.333438
255.8,21.1282,2.12925,-0.342569
258.4,21.3717,1.93483,-0.349686
261,21.617,1.88307,-0.3551
263.6,21.8616,1.72411,-0.36646
266.2,22.1051,1.63898,-0.375171
268.8,22.3511,1.58666,-0.383338
271.4,22.5964,1.53415,-0.389111
274,22.8416,1.49293,-0.398638
276.6,23.0868,1.41911,-0.410115
279.2,23.3327,1.35068,-0.420378
281.8,23.578,1.27529,-0.430541
284.4,23.8245,1.1913,-0.442613
287,24.0685,1.11458,-0.453744
289.6,24.3133,0.980763,-0.467445
292.2,24.5572,0.768918,-0.481137
294.8,24.8012,0.464603,-0.498172
297.4,25.0428,0.0454772,-0.520721
300,25.2832,-0.458507,-0.554683
302.6,25.523,-1.01008,-0.602474
305.2,25.7671,-1.1409,-0.689383
307.8,26.0192,-0.638814,-0.800796
310.4,26.2733,-0.0528204,-0.912297
313,26.525,0.313131,-1.01198
315.6,26.7748,0.488604,-1.10241
318.2,27.0232,0.596073,-1.18461
320.8,27.2737,0.69969,-1.26242
323.4,27.5229,0.875497,-1.32003
326,27.7748,1.09321,-1.36376
328.6,28.0255,1.27422,-1.39042
331.2,28.2765,1.37785,-1.40964
333.8,28.5269,1.4204,-1.42048
336.4,28.7768,1.41014,-1.43197
339,29.0256,1.38458,-1.43946
341.6,29.2739,1.36281,-1.44721
344.2,29.524,1.34729,-1.45492
346.8,29.7731,1.33292,-1.46238
349.4,30.0225,1.32537,-1.47173
352,30.2726,1.31071,-1.47809
354.6,30.5215,1.30791,-1.48492
357.2,30.7721,1.30376,-1.49399
359.8,31.022,1.31753,-1.50265
362.4,31.2725,1.33715,-1.51196
365,31.523,1.35557,-1.52142
367.6,31.774,1.38969,-1.52975
370.2,32.026,1.41869,-1.54451
372.8,32.2773,1.45243,-1.5561
375.4,32.5291,1.49758,-1.5658
378,32.7793,1.52005,-1.57807
380.6,33.0309,1.53639,-1.58982
383.2,33.2843,1.54468,-1.60207
385.8,33.5334,1.54816,-1.61466
388.4,33.7861,1.54483,-1.62604
391,34.0386,1.5422,-1.63239
393.6,34.289,1.54071,-1.64372
396.2,34.5427,1.5419,-1.65473
398.8,34.7955,1.54814,-1.66125
401.4,35.0475,1.55908,-1.67317
404,35.3004,1.56781,-1.68243
406.6,35.5532,1.57188,-1.69127
409.2,35.8063,1.58246,-1.70294
411.8,36.0596,1.58654,-1.71579
414.4,36.312,1.58374,-1.72505
417,36.5649,1.57421,-1.73437
419.6,36.8161,1.5643,-1.74688
422.2,37.0713,1.54833,-1.75521
424.8,37.3245,1.5391,-1.77022
427.4,37.5779,1.53157,-1.78239
430,37.8324,1.51008,-1.79155
432.6,38.086,1.50618,-1.80425
435.2,38.3392,1.49805,-1.81599
437.8,38.5937,1.4925,-1.82503
440.4,38.8485,1.48822,-1.83549
443,39.1026,1.48912,-1.84442
445.6,39.3567,1.50086,-1.85625
448.2,39.6099,1.49536,-1.86404
450.8,39.8654,1.48097,-1.87417
453.4,40.1198,1.47391,-1.88384
456,40.3744,1.48756,-1.8924
458.6,40.6298,1.48864,-1.90237
461.2,40.8845,1.4908,-1.91001
463.8,41.1398,1.5027,-1.91769
466.4,41.3944,1.49881,-1.92845
469,41.6498,1.51067,-1.93667
471.6,41.9041,1.51849,-1.94411
474.2,42.1598,1.52139,-1.95083
476.8,42.4164,1.51826,-1.96168
479.4,42.671,1.52899,-1.96595
482,42.9291,1.54224,-1.97356
484.6,43.1856,1.55436,-1.98227
487.2,43.4422,1.5623,-1.98694
489.8,43.6983,1.56597,-1.99651
492.4,43.9549,1.56535,-2.00393
495,44.2118,1.57134,-2.00793
497.6,44.4684,1.57101,-2.01514
500.2,44.7246,1.56839,-2.02262
502.8,44.9802,1.57609,-2.02617
505.4,45.2379,1.56989,-2.03622
508,45.4948,1.56155,-2.0419
510.6,45.7513,1.55944,-2.04656
513.2,46.0078,1.55249,-2.05272
515.8,46.2654,1.55646,-2.05937
518.4,46.5224,1.55022,-2.06466
521,46.7793,1.546,-2.07425
523.6,47.0369,1.54557,-2.07817
526.2,47.293,1.52815,-2.08649
528.8,47.5496,1.52354,-2.09028
531.4,47.8076,1.51687,-2.09563
534,48.0653,1.50466,-2.10368
536.6,48.3221,1.4983,-2.10972
539.2,48.5801,1.48159,-2.11373
541.8,48.8377,1.47014,-2.12053
544.4,49.0966,1.45668,-2.12345
547,49.3546,1.43438,-2.13244
549.6,49.6123,1.42168,-2.13498
552.2,49.8686,1.40493,-2.14021
554.8,50.1285,1.38321,-2.14565
557.4,50.3872,1.37609,-2.1498
560,50.6452,1.35825,-2.15536
562.6,50.9031,1.3514,-2.15813
565.2,51.1618,1.33935,-2.16217
567.8,51.4195,1.32504,-2.16692
570.4,51.6772,1.31444,-2.16882
573,51.9367,1.3063,-2.17403
575.6,52.1954,1.3057,-2.17797
578.2,52.4544,1.30632,-2.17998
580.8,52.7135,1.28985,-2.18476
583.4,52.9727,1.29122,-2.18599
586,53.2316,1.28695,-2.189
588.6,53.4913,1.27749,-2.19642
591.2,53.7517,1.27616,-2.19666
593.8,54.0108,1.27713,-2.19862
596.4,54.2724,1.27314,-2.1999
599,54.532,1.27146,-2.20388
601.6,54.7908,1.2634,-2.21059
604.2,55.0514,1.26179,-2.21322
606.8,55.3079,1.26656,-2.21311
609.4,55.5706,1.26025,-2.21706
612,55.8305,1.25913,-2.21839
614.6,56.0905,1.26773,-2.22128
617.2,56.3521,1.25049,-2.22666
619.8,56.6125,1.25,-2.2263
622.4,56.8732,1.24255,-2.23024
625,57.1345,1.23865,-2.23353
627.6,57.3944,1.22315,-2.23748
630.2,57.6557,1.21597,-2.23941
632.8,57.916,1.20099,-2.24111
635.4,58.1775,1.1921,-2.24506
638,58.4386,1.1864,-2.24815
640.6,58.6993,1.1624,-2.25519
643.2,58.9592,1.15318,-2.25022
645.8,59.2201,1.13688,-2.25682
648.4,59.4808,1.1222,-2.25944
651,59.7417,1.10866,-2.25944
653.6,60.0025,1.10145,-2.2625
656.2,60.2636,1.0816,-2.26567
658.8,60.5257,1.06146,-2.26727
661.4,60.7879,1.05698,-2.27082
664,61.0491,1.03597,-2.27206
666.6,61.311,1.01321,-2.27469
669.2,61.5722,1.0038,-2.27733
671.8,61.834,0.982959,-2.28164
674.4,62.0945,0.966533,-2.28295
677,62.3563,0.945625,-2.28533
679.6,62.6176,0.921142,-2.29042
682.2,62.879,0.895779,-2.29308
684.8,63.1394,0.868875,-2.29453
687.4,63.4012,0.852225,-2.29488
690,63.6622,0.824412,-2.29881
692.6,63.9247,0.796856,-2.29984
695.2,64.1863,0.753434,-2.30383
697.8,64.4483,0.717252,-2.30642
700.4,64.7106,0.697478,-2.30906
703,64.9722,0.672988,-2.31041
705.6,65.2355,0.660248,-2.31302
708.2,65.497,0.637909,-2.31643
710.8,65.7588,0.631596,-2.32056
713.4,66.0205,0.618795,-2.32127
716,66.2821,0.623069,-2.32233
718.6,66.5454,0.63251,-2.32564
721.2,66.8075,0.642932,-2.32988
723.8,67.07,0.638421,-2.33266
726.4,67.3304,0.624152,-2.33427
729,67.5999,0.624285,-2.33453
731.6,67.8713,0.617537,-2.33947
734.2,68.1419,0.594856,-2.34375
736.8,68.4102,0.570855,-2.3464
739.4,68.6812,0.547891,-2.34488
742,68.9486,0.528645,-2.35012
744.6,69.2127,0.506712,-2.35001
747.2,69.4761,0.481429,-2.35367
749.8,69.7377,0.457691,-2.35528
752.4,70.0008,0.436356,-2.35543
755,70.2617,0.424151,-2.35815
757.6,70.5234,0.412126,-2.36075
760.2,70.7845,0.39829,-2.36203
762.8,71.0467,0.397034,-2.3718
765.4,71.3078,0.3859,-2.36713
768,71.5722,0.377428,-2.36912
770.6,71.8348,0.37566,-2.37058
773.2,72.0984,0.385607,-2.37186
775.8,72.3607,0.378753,-2.37317
778.4,72.6241,0.374539,-2.37615
781,72.8873,0.36585,-2.37821
783.6,73.1513,0.372545,-2.37811
786.2,73.4149,0.363991,-2.38009
788.8,73.6778,0.359675,-2.38273
790,73.7999,0.354442,-2.38372