Folder: fsri_materials_database/01_Data/Helmet_Flap/STA/N2/10K_min

File: Helmet_Flap_STA_N2_10KData_250514_R1.csv
Temp./C,Time/min,DSC/(mW/mg),Mass loss/mg
40.0,0.0,0.941853,-0.135602
42.6,0.341302,1.0473,-0.138132
45.2,0.678049,1.15268,-0.142165
47.8,0.999427,1.26028,-0.144266
50.4,1.30489,1.36485,-0.147783
53,1.60588,1.44857,-0.152354
55.6,1.89792,1.53792,-0.156018
58.2,2.18746,1.61547,-0.160074
60.8,2.47045,1.68828,-0.165342
63.4,2.7458,1.75226,-0.17014
66,3.01728,1.78376,-0.173813
68.6,3.28801,1.81701,-0.17983
71.2,3.55506,1.82814,-0.184581
73.8,3.82181,1.83531,-0.18905
76.4,4.0848,1.81307,-0.194345
79,4.34321,1.79675,-0.198269
81.6,4.60685,1.76109,-0.203538
84.2,4.86659,1.71185,-0.20848
86.8,5.12265,1.66646,-0.211112
89.4,5.37842,1.60731,-0.213749
92,5.63257,1.5553,-0.217235
94.6,5.8855,1.48681,-0.21902
97.2,6.13416,1.4317,-0.22133
99.8,6.38774,1.36991,-0.22169
102.4,6.63862,1.31269,-0.224753
105,6.88674,1.26547,-0.22659
107.6,7.13285,1.21679,-0.22561
110.2,7.38549,1.17776,-0.227107
112.8,7.63361,1.14789,-0.22791
115.4,7.88317,1.12704,-0.22923
118,8.13258,1.10359,-0.22792
120.6,8.38185,1.09452,-0.228263
123.2,8.63015,1.08862,-0.22923
125.8,8.87762,1.07183,-0.22915
128.4,9.12463,1.05877,-0.23064
131,9.37247,1.05584,-0.229198
133.6,9.62191,1.07341,-0.230547
136.2,9.8683,1.0717,-0.22792
138.8,10.1155,1.0858,-0.230553
141.4,10.3583,1.10067,-0.230528
144,10.6067,1.10109,-0.230206
146.6,10.8519,1.12046,-0.230203
149.2,11.0977,1.11899,-0.23022
151.8,11.343,1.1276,-0.231531
154.4,11.5871,1.12926,-0.231875
157,11.8346,1.14175,-0.23154
159.6,12.0802,1.14904,-0.231507
162.2,12.3245,1.15804,-0.23252
164.8,12.5705,1.16267,-0.23285
167.4,12.8161,1.17705,-0.233216
170,13.0623,1.18413,-0.232858
172.6,13.3055,1.18724,-0.23318
175.2,13.5512,1.19477,-0.234159
177.8,13.798,1.20002,-0.2355
180.4,14.0434,1.20104,-0.23549
183,14.2868,1.20603,-0.236149
185.6,14.5324,1.20104,-0.2368
188.2,14.7762,1.20554,-0.2368
190.8,15.0203,1.2071,-0.23812
193.4,15.266,1.20176,-0.23878
196,15.5104,1.20326,-0.23878
198.6,15.7542,1.19373,-0.23977
201.2,15.998,1.19142,-0.240751
203.8,16.2433,1.20267,-0.24141
206.4,16.4883,1.19477,-0.243332
209,16.7325,1.18975,-0.245699
211.6,16.9762,1.18771,-0.24737
214.2,17.2208,1.18235,-0.248661
216.8,17.465,1.1694,-0.250959
219.4,17.7099,1.1551,-0.253229
222,17.9542,1.13395,-0.2569
224.6,18.1979,1.12514,-0.259842
227.2,18.4444,1.11509,-0.263825
229.8,18.6876,1.09414,-0.26777
232.4,18.9334,1.07369,-0.273045
235,19.179,1.07741,-0.276991
237.6,19.4248,1.07769,-0.282293
240.2,19.6693,1.08121,-0.288159
242.8,19.9152,1.07506,-0.293138
245.4,20.1603,1.0903,-0.299259
248,20.4046,1.11153,-0.305093
250.6,20.6529,1.16464,-0.312355
253.2,20.9024,1.44163,-0.318245
255.8,21.1508,1.6769,-0.324771
258.4,21.3935,1.35236,-0.330993
261,21.6398,1.29245,-0.339097
263.6,21.8839,1.13714,-0.343973
266.2,22.1278,1.0327,-0.351551
268.8,22.3733,0.993868,-0.359021
271.4,22.62,0.959391,-0.366417
274,22.8655,0.917181,-0.374154
276.6,23.1128,0.86243,-0.382828
279.2,23.3581,0.813008,-0.392379
281.8,23.6019,0.756686,-0.400759
284.4,23.8502,0.678379,-0.410855
287,24.0965,0.602562,-0.421352
289.6,24.3425,0.500915,-0.433864
292.2,24.5882,0.357654,-0.445483
294.8,24.8329,0.175296,-0.459047
297.4,25.0767,-0.0753151,-0.477123
300,25.32,-0.4353,-0.498439
302.6,25.562,-0.902969,-0.529387
305.2,25.8045,-1.36086,-0.57725
307.8,26.0502,-1.48004,-0.662838
310.4,26.3014,-1.11138,-0.782676
313,26.5553,-0.625266,-0.919916
315.6,26.8067,-0.285828,-1.05931
318.2,27.0563,-0.106414,-1.19527
320.8,27.3066,0.0173799,-1.32582
323.4,27.5566,0.152084,-1.43966
326,27.8081,0.356398,-1.52787
328.6,28.0595,0.560325,-1.57831
331.2,28.3109,0.692181,-1.61265
333.8,28.559,0.717086,-1.6304
336.4,28.8102,0.690395,-1.64029
339,29.0602,0.648086,-1.65236
341.6,29.3088,0.614643,-1.66065
344.2,29.5587,0.585037,-1.66799
346.8,29.8077,0.569122,-1.6781
349.4,30.0583,0.554091,-1.68633
352,30.3095,0.531576,-1.69402
354.6,30.5587,0.532667,-1.70474
357.2,30.8093,0.519284,-1.71097
359.8,31.0602,0.526259,-1.72064
362.4,31.3111,0.524676,-1.73005
365,31.5615,0.533079,-1.73924
367.6,31.8127,0.550837,-1.75024
370.2,32.0652,0.569531,-1.7595
372.8,32.3149,0.597815,-1.77194
375.4,32.5689,0.618478,-1.78344
378,32.8214,0.647447,-1.79433
380.6,33.0736,0.66976,-1.80604
383.2,33.3258,0.689973,-1.81849
385.8,33.5785,0.694054,-1.83097
388.4,33.8296,0.703552,-1.84214
391,34.0825,0.694058,-1.85466
393.6,34.3358,0.685071,-1.86565
396.2,34.5854,0.684162,-1.87535
398.8,34.8408,0.676991,-1.88593
401.4,35.0923,0.675617,-1.8962
404,35.3453,0.667634,-1.90672
406.6,35.5982,0.667554,-1.91644
409.2,35.8499,0.651979,-1.92529
411.8,36.1033,0.65045,-1.93659
414.4,36.3561,0.641089,-1.9458
417,36.6111,0.627485,-1.95459
419.6,36.8637,0.61711,-1.9647
422.2,37.1178,0.608499,-1.97592
424.8,37.3716,0.597673,-1.98469
427.4,37.6251,0.579771,-1.99642
430,37.8793,0.573948,-2.00548
432.6,38.1336,0.560394,-2.01415
435.2,38.3861,0.557334,-2.02581
437.8,38.6403,0.562872,-2.03627
440.4,38.8949,0.563249,-2.04547
443,39.1491,0.564189,-2.05526
445.6,39.403,0.58174,-2.06523
448.2,39.658,0.593465,-2.07403
450.8,39.9095,0.598182,-2.08324
453.4,40.1668,0.60606,-2.09385
456,40.4219,0.61366,-2.10248
458.6,40.6768,0.626153,-2.11278
461.2,40.9331,0.645979,-2.12076
463.8,41.1886,0.650505,-2.12837
466.4,41.4436,0.664242,-2.13748
469,41.6998,0.681409,-2.14598
471.6,41.9557,0.695654,-2.15384
474.2,42.2098,0.714397,-2.1605
476.8,42.4655,0.728213,-2.16898
479.4,42.7236,0.745684,-2.1782
482,42.9797,0.755482,-2.18218
484.6,43.2363,0.779388,-2.18917
487.2,43.4905,0.794542,-2.19582
489.8,43.7498,0.815071,-2.20072
492.4,44.0056,0.832437,-2.20859
495,44.263,0.851696,-2.21557
497.6,44.5199,0.866332,-2.21959
500.2,44.7762,0.88617,-2.22418
502.8,45.0334,0.906887,-2.23145
505.4,45.2897,0.935008,-2.23673
508,45.548,0.949316,-2.24207
510.6,45.8039,0.961785,-2.24801
513.2,46.0618,0.967648,-2.25333
515.8,46.3201,0.983965,-2.25731
518.4,46.5764,0.999691,-2.26295
521,46.8365,0.998178,-2.27084
523.6,47.0943,1.00542,-2.27481
526.2,47.3518,1.00334,-2.28007
528.8,47.6098,1.00602,-2.28486
531.4,47.8688,1.00275,-2.28996
534,48.1247,1.00818,-2.29522
536.6,48.3834,1.00537,-2.2992
539.2,48.6408,1.0131,-2.30514
541.8,48.8993,1.00043,-2.31072
544.4,49.157,0.998867,-2.31466
547,49.4151,0.991568,-2.31751
549.6,49.6739,0.982897,-2.32161
552.2,49.933,0.986275,-2.32662
554.8,50.1918,0.982138,-2.3319
557.4,50.4506,0.989417,-2.33486
560,50.7098,0.978028,-2.3384
562.6,50.9686,0.976243,-2.34211
565.2,51.2277,0.963089,-2.34607
567.8,51.4873,0.959159,-2.35002
570.4,51.7457,0.955283,-2.35364
573,52.003,0.942407,-2.35493
575.6,52.2635,0.946456,-2.35761
578.2,52.5228,0.935518,-2.36359
580.8,52.7828,0.928211,-2.36483
583.4,53.0416,0.92283,-2.36785
586,53.3007,0.937283,-2.37043
588.6,53.5607,0.933911,-2.37343
591.2,53.8208,0.933365,-2.37748
593.8,54.0816,0.923502,-2.37998
596.4,54.3411,0.919884,-2.38064
599,54.602,0.919338,-2.3838
601.6,54.8617,0.907637,-2.38624
604.2,55.1206,0.907023,-2.38995
606.8,55.3815,0.898696,-2.39252
609.4,55.6407,0.89244,-2.39283
612,55.9013,0.890405,-2.39507
614.6,56.1615,0.888817,-2.39751
617.2,56.4208,0.892327,-2.39905
619.8,56.6815,0.890445,-2.40304
622.4,56.9413,0.890355,-2.40668
625,57.2016,0.877017,-2.40716
627.6,57.4624,0.873102,-2.40962
630.2,57.7227,0.870338,-2.41193
632.8,57.9826,0.864872,-2.41336
635.4,58.2419,0.861583,-2.416
638,58.5037,0.864035,-2.41863
640.6,58.7639,0.86171,-2.41996
643.2,59.0254,0.848943,-2.42258
645.8,59.2857,0.844198,-2.42518
648.4,59.5462,0.811522,-2.4292
651,59.8071,0.800025,-2.42917
653.6,60.0677,0.774613,-2.43049
656.2,60.329,0.75164,-2.43411
658.8,60.5901,0.728454,-2.43575
661.4,60.8519,0.694573,-2.43705
664,61.1132,0.676855,-2.44036
666.6,61.3747,0.644066,-2.44039
669.2,61.6369,0.628065,-2.44165
671.8,61.898,0.600803,-2.44535
674.4,62.1602,0.580577,-2.44831
677,62.4193,0.563569,-2.44956
679.6,62.6811,0.539001,-2.45354
682.2,62.9411,0.512869,-2.45355
684.8,63.2022,0.504018,-2.45662
687.4,63.4637,0.479885,-2.45644
690,63.7246,0.474141,-2.45892
692.6,63.9866,0.462933,-2.46059
695.2,64.2483,0.438541,-2.46285
697.8,64.509,0.421894,-2.46419
700.4,64.7717,0.406109,-2.46681
703,65.0331,0.385024,-2.46979
705.6,65.2945,0.371412,-2.47291
708.2,65.556,0.344668,-2.47241
710.8,65.8175,0.327545,-2.47599
713.4,66.0793,0.299521,-2.47834
716,66.3406,0.271479,-2.48032
718.6,66.603,0.224794,-2.48359
721.2,66.8652,0.182768,-2.48494
723.8,67.1276,0.141361,-2.48724
726.4,67.3911,0.11959,-2.4896
729,67.6522,0.0900445,-2.49152
731.6,67.9134,0.0655366,-2.49416
734.2,68.1777,0.050116,-2.49624
736.8,68.4403,0.0236726,-2.49708
739.4,68.7027,0.00506756,-2.49894
742,68.9656,-0.0167448,-2.50133
744.6,69.2279,-0.0263044,-2.50337
747.2,69.4903,-0.0473906,-2.50502
749.8,69.7533,-0.0732637,-2.50668
752.4,70.0161,-0.0877658,-2.50799
755,70.2791,-0.091586,-2.50894
757.6,70.5419,-0.112746,-2.50998
760.2,70.8042,-0.131872,-2.5126
762.8,71.0667,-0.138795,-2.51392
765.4,71.3287,-0.144484,-2.51523
768,71.5908,-0.153304,-2.51656
770.6,71.8525,-0.168227,-2.51886
773.2,72.1154,-0.16888,-2.52018
775.8,72.3784,-0.165969,-2.52281
778.4,72.6422,-0.171248,-2.5238
781,72.9055,-0.158837,-2.52577
783.6,73.169,-0.153741,-2.52641
786.2,73.4335,-0.149325,-2.52776
788.8,73.6965,-0.144419,-2.5304
790,73.8171,-0.139625,-2.53038

File: Helmet_Flap_STA_N2_10KData_250515_R2.csv
Temp./C,Time/min,DSC/(mW/mg),Mass loss/mg
40.0,0.0,0.907196,-0.0952236
42.6,0.345843,1.01689,-0.0985998
45.2,0.674645,1.10854,-0.102464
47.8,0.994135,1.21503,-0.105143
50.4,1.301,1.3155,-0.109224
53,1.60404,1.41375,-0.111369
55.6,1.89858,1.51631,-0.115815
58.2,2.18567,1.61235,-0.122291
60.8,2.46852,1.69336,-0.126909
63.4,2.74611,1.7609,-0.131635
66,3.01802,1.82859,-0.136258
68.6,3.29027,1.88165,-0.142529
71.2,3.55712,1.90579,-0.147489
73.8,3.823,1.9386,-0.152756
76.4,4.08744,1.93973,-0.157789
79,4.34995,1.92628,-0.160721
81.6,4.60915,1.89801,-0.167311
84.2,4.86693,1.85853,-0.17126
86.8,5.12443,1.80329,-0.175168
89.4,5.3806,1.75488,-0.17916
92,5.63549,1.69268,-0.183123
94.6,5.88523,1.63437,-0.18443
97.2,6.13702,1.57189,-0.188374
99.8,6.3886,1.50726,-0.189509
102.4,6.63771,1.45568,-0.193541
105,6.88562,1.39671,-0.195526
107.6,7.13485,1.34882,-0.19769
110.2,7.3838,1.2935,-0.197494
112.8,7.63283,1.26424,-0.200789
115.4,7.88077,1.21486,-0.20046
118,8.13057,1.18791,-0.200811
120.6,8.37988,1.17347,-0.202109
123.2,8.62782,1.16454,-0.20211
125.8,8.87664,1.14762,-0.20211
128.4,9.12422,1.11975,-0.202762
131,9.37107,1.1067,-0.20167
133.6,9.61799,1.11268,-0.204298
136.2,9.86515,1.11456,-0.203296
138.8,10.1116,1.12795,-0.204343
141.4,10.3588,1.12774,-0.204309
144,10.6045,1.13676,-0.204308
146.6,10.8512,1.15663,-0.205373
149.2,11.0962,1.1716,-0.204325
151.8,11.3422,1.18108,-0.20563
154.4,11.5863,1.18415,-0.20562
157,11.8338,1.19793,-0.20562
159.6,12.0769,1.20728,-0.206234
162.2,12.3215,1.21154,-0.20661
164.8,12.567,1.22387,-0.20825
167.4,12.81,1.22892,-0.207075
170,13.0572,1.23468,-0.20694
172.6,13.3021,1.24872,-0.208861
175.2,13.5475,1.2502,-0.209242
177.8,13.7926,1.25303,-0.210566
180.4,14.0366,1.25412,-0.210561
183,14.2801,1.26342,-0.211887
185.6,14.5246,1.26949,-0.21057
188.2,14.7689,1.25903,-0.211878
190.8,15.013,1.25495,-0.212869
193.4,15.2592,1.26668,-0.2132
196,15.5027,1.25611,-0.2132
198.6,15.7473,1.24973,-0.215807
201.2,15.9911,1.25273,-0.21584
203.8,16.2356,1.25382,-0.217175
206.4,16.4793,1.24296,-0.2178
209,16.7235,1.25739,-0.219451
211.6,16.9685,1.23659,-0.221756
214.2,17.2126,1.23274,-0.22473
216.8,17.4548,1.22481,-0.226202
219.4,17.7018,1.214,-0.229664
222,17.9463,1.20578,-0.231817
224.6,18.1911,1.19189,-0.23527
227.2,18.436,1.17278,-0.241857
229.8,18.6803,1.16155,-0.244494
232.4,18.9269,1.14996,-0.250074
235,19.1704,1.14701,-0.254497
237.6,19.4171,1.14983,-0.261442
240.2,19.6623,1.15074,-0.268315
242.8,19.908,1.15654,-0.273579
245.4,20.1541,1.17176,-0.280171
248,20.3981,1.19441,-0.287907
250.6,20.6479,1.25747,-0.29402
253.2,20.8973,1.56649,-0.300025
255.8,21.146,1.76687,-0.308822
258.4,21.3886,1.44838,-0.314286
261,21.6334,1.39161,-0.32098
263.6,21.8781,1.22904,-0.328889
266.2,22.1222,1.13755,-0.33686
268.8,22.3681,1.1009,-0.342775
271.4,22.6149,1.05968,-0.353238
274,22.8598,1.01039,-0.361311
276.6,23.1062,0.971357,-0.369824
279.2,23.3518,0.917643,-0.37901
281.8,23.5975,0.845628,-0.388737
284.4,23.844,0.760748,-0.399305
287,24.0899,0.681854,-0.410547
289.6,24.3344,0.582964,-0.422399
292.2,24.5797,0.4305,-0.435624
294.8,24.8253,0.221819,-0.450368
297.4,25.0674,-0.0697014,-0.469292
300,25.3102,-0.490157,-0.492405
302.6,25.5509,-1.05176,-0.52695
305.2,25.7895,-1.61167,-0.58448
307.8,26.0374,-1.70055,-0.68126
310.4,26.2894,-1.2279,-0.814462
313,26.5418,-0.685447,-0.959693
315.6,26.7952,-0.347188,-1.10803
318.2,27.0454,-0.156462,-1.24594
320.8,27.2957,-0.0127193,-1.37539
323.4,27.5464,0.201918,-1.48259
326,27.7991,0.5039,-1.55916
328.6,28.0509,0.768653,-1.60491
331.2,28.3021,0.905572,-1.62887
333.8,28.5525,0.928932,-1.64417
336.4,28.8016,0.893191,-1.65589
339,29.0507,0.843,-1.66485
341.6,29.3002,0.809258,-1.67605
344.2,29.55,0.802101,-1.6845
346.8,29.7994,0.781892,-1.6927
349.4,30.0492,0.77021,-1.70119
352,30.2994,0.759462,-1.71281
354.6,30.5492,0.750138,-1.7218
357.2,30.8,0.743285,-1.72946
359.8,31.0508,0.751831,-1.7383
362.4,31.3013,0.750285,-1.74862
365,31.5518,0.76199,-1.75999
367.6,31.8006,0.781029,-1.76847
370.2,32.0547,0.791826,-1.78001
372.8,32.306,0.807589,-1.79244
375.4,32.5578,0.83379,-1.80326
378,32.8104,0.854042,-1.81491
380.6,33.0633,0.882416,-1.82744
383.2,33.3138,0.90057,-1.83908
385.8,33.5664,0.91619,-1.85056
388.4,33.8186,0.91882,-1.86539
391,34.0714,0.923551,-1.87624
393.6,34.3239,0.929464,-1.88752
396.2,34.5764,0.920427,-1.89934
398.8,34.829,0.92605,-1.90992
401.4,35.0834,0.92355,-1.92003
404,35.3348,0.923095,-1.93029
406.6,35.5888,0.916403,-1.94291
409.2,35.8409,0.898246,-1.95303
411.8,36.0949,0.891916,-1.96225
414.4,36.3478,0.878121,-1.97274
417,36.6019,0.86477,-1.98306
419.6,36.8554,0.847332,-1.99447
422.2,37.1093,0.825298,-2.00346
424.8,37.3629,0.805387,-2.01543
427.4,37.6167,0.785725,-2.02748
430,37.8711,0.772172,-2.03691
432.6,38.125,0.757053,-2.04869
435.2,38.3782,0.747515,-2.05787
437.8,38.6323,0.737298,-2.06947
440.4,38.8863,0.739214,-2.07822
443,39.1409,0.74409,-2.09048
445.6,39.3948,0.742138,-2.09863
448.2,39.6503,0.748647,-2.11053
450.8,39.9058,0.751575,-2.12144
453.4,40.1606,0.745305,-2.12956
456,40.4163,0.749784,-2.13952
458.6,40.671,0.754138,-2.1468
461.2,40.927,0.760052,-2.15772
463.8,41.1819,0.772187,-2.16531
466.4,41.438,0.772707,-2.17327
469,41.6937,0.78097,-2.18157
471.6,41.9483,0.790338,-2.19102
474.2,42.205,0.793603,-2.1997
476.8,42.46,0.81554,-2.20488
479.4,42.7153,0.81821,-2.21388
482,42.9713,0.830923,-2.22057
484.6,43.2277,0.844329,-2.22727
487.2,43.4838,0.85987,-2.23395
489.8,43.742,0.86719,-2.24066
492.4,43.9988,0.881337,-2.24769
495,44.2571,0.893725,-2.25318
497.6,44.5129,0.906458,-2.25969
500.2,44.7711,0.90053,-2.26488
502.8,45.0268,0.92148,-2.2701
505.4,45.2846,0.888723,-2.27679
508,45.5416,0.921626,-2.28139
510.6,45.7995,0.936177,-2.28568
513.2,46.0568,0.950866,-2.29334
515.8,46.3149,0.95271,-2.30005
518.4,46.5721,0.960335,-2.3057
521,46.8292,0.959591,-2.30895
523.6,47.0874,0.967256,-2.31465
526.2,47.3448,0.965069,-2.32116
528.8,47.6021,0.975949,-2.32562
531.4,47.8596,0.975933,-2.33038
534,48.1182,0.971614,-2.33645
536.6,48.3755,0.974025,-2.34172
539.2,48.6331,0.967171,-2.34571
541.8,48.8914,0.963365,-2.3506
544.4,49.1507,0.959501,-2.35451
547,49.4096,0.962304,-2.35977
549.6,49.6675,0.949212,-2.36359
552.2,49.9268,0.936961,-2.36768
554.8,50.1846,0.933885,-2.37163
557.4,50.4432,0.908145,-2.3756
560,50.703,0.916674,-2.37921
562.6,50.9614,0.89506,-2.38353
565.2,51.2201,0.901086,-2.38612
567.8,51.4787,0.88186,-2.39007
570.4,51.7388,0.874089,-2.39502
573,51.9985,0.879413,-2.39833
575.6,52.2586,0.869587,-2.40061
578.2,52.5181,0.861032,-2.4032
580.8,52.7774,0.850034,-2.40719
583.4,53.038,0.838988,-2.40983
586,53.2973,0.832735,-2.41116
588.6,53.5567,0.830913,-2.4151
591.2,53.8176,0.821346,-2.41775
593.8,54.0774,0.815228,-2.42079
596.4,54.3366,0.815089,-2.42466
599,54.5972,0.813464,-2.42566
601.6,54.8584,0.821291,-2.4287
604.2,55.1186,0.808254,-2.43256
606.8,55.3792,0.806976,-2.43673
609.4,55.6378,0.806115,-2.43949
612,55.8998,0.793269,-2.44081
614.6,56.16,0.788372,-2.44343
617.2,56.4196,0.777174,-2.44711
619.8,56.6814,0.772593,-2.44705
622.4,56.942,0.757954,-2.451
625,57.2027,0.753648,-2.45382
627.6,57.4633,0.73793,-2.45583
630.2,57.7252,0.737019,-2.4589
632.8,57.9862,0.723467,-2.46023
635.4,58.2485,0.709413,-2.46188
638,58.5091,0.70345,-2.46451
640.6,58.7688,0.695899,-2.46814
643.2,59.0308,0.673188,-2.46945
645.8,59.2925,0.667165,-2.47209
648.4,59.5523,0.657821,-2.47277
651,59.8134,0.636652,-2.47724
653.6,60.0749,0.613754,-2.47846
656.2,60.3372,0.606773,-2.48294
658.8,60.5971,0.590135,-2.48284
661.4,60.8583,0.583265,-2.48417
664,61.119,0.572699,-2.48679
666.6,61.381,0.553088,-2.49009
669.2,61.6413,0.543208,-2.49141
671.8,61.9034,0.532346,-2.49306
674.4,62.1648,0.512491,-2.49702
677,62.4267,0.502361,-2.49751
679.6,62.6888,0.483407,-2.5008
682.2,62.95,0.471291,-2.50092
684.8,63.2116,0.45239,-2.50491
687.4,63.4732,0.435245,-2.50492
690,63.7346,0.415621,-2.50754
692.6,63.9961,0.407328,-2.51004
695.2,64.2563,0.395379,-2.5115
697.8,64.5173,0.390718,-2.51415
700.4,64.7813,0.37766,-2.51577
703,65.0433,0.370618,-2.51842
705.6,65.3066,0.350003,-2.52025
708.2,65.568,0.340292,-2.52171
710.8,65.8298,0.318774,-2.52434
713.4,66.0926,0.303972,-2.52699
716,66.3544,0.299071,-2.52827
718.6,66.6183,0.279912,-2.53121
721.2,66.8796,0.268232,-2.53358
723.8,67.1411,0.259441,-2.53488
726.4,67.4041,0.245022,-2.53742
729,67.6658,0.227461,-2.53993
731.6,67.9282,0.213515,-2.54018
734.2,68.1907,0.206296,-2.54355
736.8,68.4517,0.194445,-2.54487
739.4,68.7152,0.178123,-2.54608
742,68.9765,0.160687,-2.54869
744.6,69.2404,0.153916,-2.55135
747.2,69.5023,0.146936,-2.55299
749.8,69.765,0.149304,-2.55548
752.4,70.0276,0.12659,-2.55694
755,70.292,0.118922,-2.55892
757.6,70.5543,0.117081,-2.56093
760.2,70.818,0.114452,-2.56255
762.8,71.0827,0.107113,-2.56426
765.4,71.3448,0.112623,-2.56583
768,71.6083,0.102659,-2.56914
770.6,71.8721,0.104196,-2.57044
773.2,72.1357,0.0999002,-2.57309
775.8,72.399,0.102699,-2.57473
778.4,72.6612,0.0968424,-2.576
781,72.9243,0.0926252,-2.57671
783.6,73.1856,0.09478,-2.57802
786.2,73.4519,0.0954482,-2.5817
788.8,73.7156,0.0996475,-2.58263
790,73.8364,0.0993246,-2.58263