Folder: fsri_materials_database/01_Data/Helmet_Flap/STA/N2/30K_min (part 2)

File: Helmet_Flap_STA_N2_30KData_250519_R3.csv
Temp./C,Time/min,DSC/(mW/mg),Mass loss/mg
40.0,0.0,1.295,-0.0572221
42.6,0.160061,1.53868,-0.0578451
45.2,0.303121,1.75153,-0.0572814
47.8,0.436447,1.95907,-0.0592181
50.4,0.563508,2.16155,-0.0606438
53,0.684287,2.354,-0.0627567
55.6,0.800758,2.54759,-0.0638509
58.2,0.913924,2.74893,-0.0712295
60.8,1.02484,2.95313,-0.0734034
63.4,1.13255,3.15192,-0.0725595
66,1.23829,3.3556,-0.0738256
68.6,1.34354,3.5518,-0.0804214
71.2,1.44666,3.74741,-0.0817431
73.8,1.54841,3.9293,-0.0856486
76.4,1.64881,4.10753,-0.0905817
79,1.74844,4.24743,-0.0917837
81.6,1.84698,4.39232,-0.0938824
84.2,1.94373,4.49918,-0.0991128
86.8,2.03929,4.5837,-0.101764
89.4,2.1346,4.64161,-0.106769
92,2.22761,4.66064,-0.109998
94.6,2.31958,4.66624,-0.112643
97.2,2.4118,4.62688,-0.119933
99.8,2.50115,4.59083,-0.12472
102.4,2.59185,4.51217,-0.127073
105,2.68151,4.42746,-0.130537
107.6,2.76981,4.32551,-0.131731
110.2,2.85778,4.2383,-0.135566
112.8,2.94647,4.12672,-0.135808
115.4,3.03371,4.03266,-0.135777
118,3.12109,3.9268,-0.137757
120.6,3.20775,3.83366,-0.13843
123.2,3.29351,3.75129,-0.13843
125.8,3.37918,3.65146,-0.14113
128.4,3.46443,3.53958,-0.145527
131,3.54927,3.45909,-0.145125
133.6,3.63355,3.40568,-0.144797
136.2,3.717,3.35129,-0.145119
138.8,3.80094,3.31941,-0.144436
141.4,3.88321,3.30082,-0.145251
144,3.96576,3.29977,-0.145135
146.6,4.04795,3.31301,-0.145487
149.2,4.13075,3.33525,-0.145171
151.8,4.21217,3.36947,-0.143819
154.4,4.29394,3.39585,-0.142904
157,4.37522,3.4468,-0.141167
159.6,4.45655,3.47427,-0.142486
162.2,4.53722,3.49776,-0.146197
164.8,4.61782,3.52326,-0.149516
167.4,4.69885,3.55144,-0.149577
170,4.77932,3.58126,-0.147217
172.6,4.85927,3.61623,-0.147198
175.2,4.9394,3.65589,-0.147334
177.8,5.01926,3.68389,-0.15308
180.4,5.09867,3.69966,-0.153642
183,5.17813,3.73416,-0.15238
185.6,5.2571,3.76077,-0.151059
188.2,5.33605,3.79189,-0.15106
190.8,5.4144,3.81032,-0.149733
193.4,5.49268,3.8317,-0.152307
196,5.57121,3.84395,-0.15369
198.6,5.64919,3.86613,-0.153658
201.2,5.72686,3.873,-0.15579
203.8,5.80479,3.88765,-0.15604
206.4,5.88243,3.89588,-0.15501
209,5.96021,3.90842,-0.155018
211.6,6.03752,3.90984,-0.155004
214.2,6.1152,3.9079,-0.156001
216.8,6.19243,3.90965,-0.15732
219.4,6.26972,3.90213,-0.158247
222,6.34695,3.91333,-0.161276
224.6,6.42395,3.89343,-0.161556
227.2,6.50116,3.88104,-0.164131
229.8,6.57783,3.85817,-0.169218
232.4,6.65497,3.84493,-0.173747
235,6.73196,3.8254,-0.176691
237.6,6.80853,3.7963,-0.176195
240.2,6.88532,3.79177,-0.178822
242.8,6.96229,3.76108,-0.183568
245.4,7.03866,3.75227,-0.189409
248,7.11583,3.81658,-0.197058
250.6,7.19434,4.26815,-0.198915
253.2,7.27213,4.62455,-0.203278
255.8,7.34821,4.46776,-0.210161
258.4,7.4251,4.40635,-0.215536
261,7.50107,4.18471,-0.222885
263.6,7.57711,3.9344,-0.22972
266.2,7.65333,3.78172,-0.235916
268.8,7.72938,3.68114,-0.244183
271.4,7.8057,3.6196,-0.25372
274,7.88229,3.57453,-0.258027
276.6,7.95858,3.5146,-0.262107
279.2,8.03522,3.47138,-0.267518
281.8,8.11181,3.41954,-0.275453
284.4,8.18819,3.34488,-0.281618
287,8.26443,3.23665,-0.289718
289.6,8.34066,3.12164,-0.294845
292.2,8.41711,2.98165,-0.302181
294.8,8.49336,2.80211,-0.314691
297.4,8.56966,2.60319,-0.322888
300,8.64577,2.37686,-0.326698
302.6,8.72164,2.10649,-0.335809
305.2,8.79708,1.78473,-0.3463
307.8,8.87265,1.35819,-0.35841
310.4,8.94708,0.743577,-0.370963
313,9.0214,-0.122313,-0.39058
315.6,9.09404,-1.37023,-0.408942
318.2,9.16502,-3.02124,-0.441305
320.8,9.23695,-4.51753,-0.494766
323.4,9.31252,-4.66699,-0.59119
326,9.39271,-3.42205,-0.737125
328.6,9.47383,-2.02517,-0.904828
331.2,9.55382,-1.05964,-1.0728
333.8,9.63279,-0.559826,-1.22643
336.4,9.71139,-0.278304,-1.36562
339,9.79039,0.146029,-1.47208
341.6,9.8696,0.818119,-1.54034
344.2,9.95057,1.52025,-1.57877
346.8,10.0303,1.99352,-1.60041
349.4,10.1092,2.20912,-1.61645
352,10.1875,2.28751,-1.62816
354.6,10.2657,2.28815,-1.63731
357.2,10.3441,2.25088,-1.64613
359.8,10.4224,2.21197,-1.65428
362.4,10.5005,2.17923,-1.65968
365,10.5789,2.13663,-1.66757
367.6,10.6571,2.09064,-1.67617
370.2,10.7355,2.06518,-1.68639
372.8,10.814,2.04009,-1.69346
375.4,10.8927,2.02114,-1.70159
378,10.9715,2.01903,-1.71201
380.6,11.0504,2.02725,-1.72019
383.2,11.1291,2.03934,-1.73042
385.8,11.2083,2.06635,-1.73792
388.4,11.2876,2.13937,-1.74822
391,11.3668,2.21763,-1.75992
393.6,11.4467,2.29986,-1.77137
396.2,11.5258,2.39277,-1.78172
398.8,11.6055,2.48371,-1.79408
401.4,11.6854,2.57355,-1.80741
404,11.7644,2.63436,-1.81909
406.6,11.8449,2.69496,-1.83022
409.2,11.9243,2.71382,-1.844
411.8,12.004,2.70061,-1.85742
414.4,12.0831,2.66424,-1.87006
417,12.1637,2.58813,-1.88481
419.6,12.2432,2.51693,-1.89743
422.2,12.3231,2.41918,-1.90783
424.8,12.4024,2.31008,-1.92061
427.4,12.4827,2.19091,-1.93198
430,12.5621,2.05652,-1.94325
432.6,12.6424,1.94247,-1.95319
435.2,12.7225,1.84387,-1.96298
437.8,12.8026,1.77675,-1.97467
440.4,12.8829,1.72146,-1.98535
443,12.9635,1.68857,-1.9945
445.6,13.044,1.67383,-2.00481
448.2,13.1245,1.65769,-2.01704
450.8,13.2053,1.65672,-2.02797
453.4,13.2861,1.66078,-2.03711
456,13.367,1.67167,-2.04829
458.6,13.4485,1.68252,-2.05741
461.2,13.5296,1.69924,-2.06718
463.8,13.6107,1.70444,-2.075
466.4,13.692,1.72054,-2.08294
469,13.7736,1.73745,-2.09272
471.6,13.8549,1.74235,-2.09994
474.2,13.9363,1.7656,-2.10826
476.8,14.018,1.77152,-2.11848
479.4,14.0996,1.78094,-2.12651
482,14.1815,1.79866,-2.1392
484.6,14.2634,1.80937,-2.14721
487.2,14.3455,1.82454,-2.15546
489.8,14.4276,1.84493,-2.1642
492.4,14.5091,1.86047,-2.17138
495,14.5917,1.87326,-2.17672
497.6,14.6732,1.89671,-2.1835
500.2,14.7558,1.90812,-2.19285
502.8,14.838,1.92962,-2.20073
505.4,14.9207,1.95874,-2.20527
508,15.0034,1.99512,-2.20807
510.6,15.0861,2.02916,-2.21664
513.2,15.1679,2.04179,-2.22247
515.8,15.2513,2.0655,-2.22796
518.4,15.3341,2.09429,-2.23128
521,15.4169,2.12795,-2.23516
523.6,15.4996,2.14888,-2.24148
526.2,15.583,2.18516,-2.24842
528.8,15.6655,2.21433,-2.25217
531.4,15.7488,2.23829,-2.25722
534,15.8318,2.26867,-2.26467
536.6,15.9148,2.29086,-2.2681
539.2,15.998,2.31779,-2.27621
541.8,16.0815,2.33397,-2.28243
544.4,16.1647,2.35617,-2.28987
547,16.2471,2.36111,-2.29265
549.6,16.3305,2.37546,-2.29633
552.2,16.4144,2.38076,-2.2973
554.8,16.4975,2.37882,-2.29944
557.4,16.5811,2.37859,-2.30781
560,16.6645,2.3692,-2.3129
562.6,16.7479,2.3801,-2.3201
565.2,16.8316,2.36907,-2.32342
567.8,16.915,2.3644,-2.32975
570.4,16.9978,2.34913,-2.33191
573,17.082,2.34985,-2.33458
575.6,17.1657,2.34212,-2.33973
578.2,17.2498,2.34431,-2.3422
580.8,17.3332,2.33663,-2.3438
583.4,17.4167,2.32135,-2.34518
586,17.501,2.31091,-2.35008
588.6,17.5853,2.29417,-2.35837
591.2,17.6693,2.28483,-2.36463
593.8,17.7534,2.27312,-2.3677
596.4,17.8374,2.26092,-2.36909
599,17.9218,2.2583,-2.37034
601.6,18.0061,2.23769,-2.37179
604.2,18.0904,2.2368,-2.37306
606.8,18.1749,2.23412,-2.37459
609.4,18.2592,2.22912,-2.37839
612,18.3436,2.23024,-2.37768
614.6,18.4283,2.22445,-2.38243
617.2,18.5123,2.21997,-2.38622
619.8,18.5975,2.22232,-2.38836
622.4,18.6821,2.22215,-2.39128
625,18.7669,2.2167,-2.39634
627.6,18.8516,2.21597,-2.40117
630.2,18.9363,2.2102,-2.40475
632.8,19.0203,2.21349,-2.40472
635.4,19.1059,2.20724,-2.40526
638,19.1907,2.18788,-2.40612
640.6,19.2756,2.17714,-2.40742
643.2,19.3604,2.16509,-2.40752
645.8,19.4453,2.17248,-2.40622
648.4,19.5302,2.16596,-2.40753
651,19.6152,2.15246,-2.41103
653.6,19.7004,2.14422,-2.41408
656.2,19.7853,2.13496,-2.41781
658.8,19.8703,2.12049,-2.42174
661.4,19.9555,2.11555,-2.42859
664,20.0397,2.09472,-2.43055
666.6,20.1251,2.07692,-2.4329
669.2,20.2104,2.07497,-2.433
671.8,20.2957,2.05357,-2.43732
674.4,20.3805,2.0427,-2.44125
677,20.4657,2.03115,-2.44277
679.6,20.5509,2.01695,-2.44127
682.2,20.6363,1.99994,-2.44329
684.8,20.7212,1.9818,-2.44401
687.4,20.8064,1.96236,-2.44674
690,20.8916,1.94052,-2.44939
692.6,20.9769,1.92326,-2.45153
695.2,21.0625,1.90327,-2.45452
697.8,21.1475,1.88345,-2.45583
700.4,21.2331,1.86695,-2.45519
703,21.3187,1.85541,-2.45548
705.6,21.4042,1.83542,-2.45682
708.2,21.4901,1.822,-2.4604
710.8,21.5755,1.79774,-2.46384
713.4,21.6608,1.77973,-2.46392
716,21.7467,1.75798,-2.46658
718.6,21.8326,1.7216,-2.46994
721.2,21.9184,1.70339,-2.47089
723.8,22.0041,1.68558,-2.4736
726.4,22.0902,1.64756,-2.47647
729,22.1756,1.60893,-2.47791
731.6,22.261,1.57007,-2.47802
734.2,22.3477,1.5379,-2.48134
736.8,22.4336,1.49761,-2.48629
739.4,22.5196,1.45484,-2.48702
742,22.6059,1.42367,-2.48701
744.6,22.6919,1.39104,-2.48762
747.2,22.7779,1.36088,-2.48901
749.8,22.8641,1.33385,-2.49182
752.4,22.9502,1.29134,-2.49547
755,23.0367,1.27033,-2.49839
757.6,23.1227,1.23842,-2.49985
760.2,23.2087,1.21952,-2.50081
762.8,23.2948,1.18045,-2.50243
765.4,23.3806,1.15387,-2.50128
768,23.4674,1.12877,-2.50258
770.6,23.5536,1.10412,-2.5048
773.2,23.6401,1.07902,-2.50705
775.8,23.7264,1.05821,-2.51135
778.4,23.8125,1.02535,-2.51183
781,23.8987,0.987827,-2.5171
783.6,23.985,0.955099,-2.51728
786.2,24.0713,0.919207,-2.51998
788.8,24.1582,0.894135,-2.52127
790,24.1977,0.882877,-2.52127

File: Helmet_Flap_STA_N2_30KData_250529_R4.csv
Temp./C,Time/min,DSC/(mW/mg),Mass loss/mg
40.0,0.0,1.64026,-0.0976773
42.6,0.157743,1.95202,-0.0997616
45.2,0.302197,2.22175,-0.102425
47.8,0.43652,2.49025,-0.106687
50.4,0.563821,2.7467,-0.105358
53,0.685338,3.01099,-0.108481
55.6,0.802957,3.26094,-0.113578
58.2,0.916153,3.55312,-0.115436
60.8,1.02714,3.81103,-0.120825
63.4,1.13613,4.08455,-0.123294
66,1.24266,4.36369,-0.126582
68.6,1.34754,4.63978,-0.131017
71.2,1.451,4.89423,-0.133665
73.8,1.55326,5.12474,-0.140253
76.4,1.65405,5.33164,-0.144904
79,1.75368,5.53211,-0.149587
81.6,1.8518,5.70262,-0.1556
84.2,1.94878,5.81549,-0.159793
86.8,2.04477,5.91354,-0.163857
89.4,2.13877,5.98577,-0.170071
92,2.23251,6.02669,-0.174711
94.6,2.32444,6.0352,-0.180058
97.2,2.41554,6.01614,-0.184328
99.8,2.50663,5.96699,-0.187628
102.4,2.59606,5.89625,-0.195383
105,2.68545,5.81619,-0.196725
107.6,2.77392,5.69747,-0.200676
110.2,2.86163,5.59478,-0.204619
112.8,2.94899,5.47156,-0.207258
115.4,3.03643,5.3437,-0.211264
118,3.12297,5.22082,-0.21255
120.6,3.20964,5.10883,-0.214783
123.2,3.29529,5.00632,-0.21649
125.8,3.38054,4.87166,-0.21649
128.4,3.46544,4.75487,-0.217816
131,3.54958,4.66248,-0.219213
133.6,3.63379,4.60895,-0.220444
136.2,3.71724,4.53989,-0.22176
138.8,3.80035,4.49234,-0.222829
141.4,3.88321,4.478,-0.224621
144,3.9655,4.47315,-0.224887
146.6,4.04794,4.48805,-0.22319
149.2,4.12982,4.51252,-0.223198
151.8,4.2112,4.54144,-0.230275
154.4,4.29265,4.58657,-0.224715
157,4.37347,4.63423,-0.22406
159.6,4.45493,4.69423,-0.224874
162.2,4.53525,4.75049,-0.225458
164.8,4.61576,4.79775,-0.226811
167.4,4.69685,4.8504,-0.22682
170,4.77734,4.88936,-0.228132
172.6,4.85742,4.948,-0.229073
175.2,4.9371,4.99511,-0.230761
177.8,5.0166,5.04218,-0.229449
180.4,5.09514,5.08355,-0.22946
183,5.17514,5.12093,-0.23076
185.6,5.25393,5.17942,-0.230754
188.2,5.33282,5.21742,-0.23208
190.8,5.41109,5.25312,-0.232081
193.4,5.48976,5.29293,-0.233404
196,5.56757,5.33877,-0.23471
198.6,5.64537,5.38335,-0.234816
201.2,5.72346,5.40358,-0.234711
203.8,5.80138,5.4394,-0.236035
206.4,5.87905,5.47234,-0.238767
209,5.95665,5.50302,-0.239991
211.6,6.03408,5.52984,-0.238676
214.2,6.1115,5.57249,-0.240858
216.8,6.18901,5.5864,-0.242607
219.4,6.26633,5.60503,-0.243059
222,6.34353,5.62658,-0.244381
224.6,6.4209,5.64964,-0.245721
227.2,6.49781,5.663,-0.24842
229.8,6.57496,5.68942,-0.251203
232.4,6.65174,5.70199,-0.253572
235,6.72792,5.7013,-0.255602
237.6,6.8057,5.69949,-0.259166
240.2,6.88223,5.68506,-0.263558
242.8,6.9592,5.64892,-0.265735
245.4,7.03523,5.62214,-0.270711
248,7.11245,5.64904,-0.275917
250.6,7.19016,6.02658,-0.281766
253.2,7.26761,6.31661,-0.286704
255.8,7.34382,6.18646,-0.292421
258.4,7.42063,6.15211,-0.299421
261,7.49578,5.94279,-0.305528
263.6,7.57218,5.73018,-0.311531
266.2,7.64804,5.59596,-0.31916
268.8,7.72446,5.507,-0.325745
271.4,7.80076,5.459,-0.333584
274,7.87696,5.42502,-0.341392
276.6,7.95325,5.37102,-0.348744
279.2,8.02948,5.30816,-0.357234
281.8,8.10602,5.23955,-0.365744
284.4,8.18228,5.13636,-0.37368
287,8.25846,5.01587,-0.382173
289.6,8.33466,4.86797,-0.39201
292.2,8.41047,4.68715,-0.399387
294.8,8.48642,4.44924,-0.408171
297.4,8.56208,4.19393,-0.418048
300,8.63783,3.90198,-0.428766
302.6,8.71334,3.56605,-0.439268
305.2,8.78859,3.10477,-0.449862
307.8,8.86274,2.41529,-0.461913
310.4,8.93589,1.40356,-0.477741
313,9.00794,0.00485145,-0.497148
315.6,9.07803,-1.84795,-0.526286
318.2,9.14834,-3.77098,-0.572978
320.8,9.22326,-4.15963,-0.659786
323.4,9.3033,-2.88114,-0.788561
326,9.38469,-1.29443,-0.921599
328.6,9.4652,-0.108154,-1.03846
331.2,9.54495,0.660748,-1.13905
333.8,9.62383,1.21653,-1.22482
336.4,9.70321,1.80941,-1.29848
339,9.78323,2.55379,-1.35165
341.6,9.86341,3.294,-1.38586
344.2,9.94252,3.85936,-1.40758
346.8,10.0223,4.20802,-1.42255
349.4,10.1006,4.39837,-1.43096
352,10.179,4.46401,-1.44099
354.6,10.2576,4.46933,-1.44698
357.2,10.3353,4.42997,-1.4542
359.8,10.4134,4.40014,-1.46142
362.4,10.4918,4.36002,-1.46703
365,10.5701,4.32457,-1.47552
367.6,10.6487,4.29076,-1.48308
370.2,10.7268,4.2811,-1.49013
372.8,10.8056,4.27692,-1.49603
375.4,10.8842,4.28293,-1.5049
378,10.9631,4.29118,-1.51315
380.6,11.0424,4.3281,-1.51989
383.2,11.1215,4.39792,-1.52992
385.8,11.2009,4.47549,-1.53962
388.4,11.2805,4.58971,-1.54879
391,11.36,4.72619,-1.5592
393.6,11.4401,4.87599,-1.57148
396.2,11.5195,5.01831,-1.58445
398.8,11.5995,5.15219,-1.59718
401.4,11.6793,5.25335,-1.61047
404,11.7591,5.32801,-1.62302
406.6,11.8389,5.36088,-1.63572
409.2,11.9186,5.35166,-1.64764
411.8,11.9983,5.32181,-1.65934
414.4,12.0781,5.27937,-1.67024
417,12.1573,5.21083,-1.67994
419.6,12.2372,5.12931,-1.69331
422.2,12.3162,5.00599,-1.70402
424.8,12.3959,4.89315,-1.71552
427.4,12.4765,4.78187,-1.72707
430,12.5562,4.6717,-1.73816
432.6,12.6361,4.57811,-1.75317
435.2,12.7163,4.49619,-1.76639
437.8,12.7965,4.43427,-1.77706
440.4,12.8762,4.39323,-1.78997
443,12.9572,4.36235,-1.8028
445.6,13.0378,4.33594,-1.81622
448.2,13.119,4.33003,-1.82793
450.8,13.1995,4.30986,-1.83769
453.4,13.2804,4.31223,-1.84799
456,13.3614,4.30017,-1.85864
458.6,13.4425,4.2864,-1.87016
461.2,13.5234,4.27926,-1.87923
463.8,13.6044,4.25659,-1.88719
466.4,13.6858,4.24041,-1.89676
469,13.7663,4.22105,-1.90626
471.6,13.8483,4.19857,-1.91579
474.2,13.9292,4.18214,-1.92423
476.8,14.0107,4.19134,-1.93406
479.4,14.0923,4.18063,-1.94199
482,14.1738,4.17428,-1.94861
484.6,14.2552,4.18208,-1.95746
487.2,14.3372,4.1943,-1.96607
489.8,14.4187,4.19853,-1.97333
492.4,14.5005,4.19593,-1.98023
495,14.5824,4.21088,-1.9876
497.6,14.6646,4.22382,-1.99564
500.2,14.7465,4.23899,-2.00344
502.8,14.8284,4.24256,-2.00972
505.4,14.9103,4.24987,-2.01708
508,14.9927,4.26122,-2.0238
510.6,15.0751,4.2693,-2.02776
513.2,15.1569,4.29289,-2.03499
515.8,15.2396,4.30018,-2.04078
518.4,15.3219,4.31807,-2.0476
521,15.4042,4.32119,-2.05223
523.6,15.4871,4.34513,-2.05956
526.2,15.5697,4.36045,-2.06507
528.8,15.6524,4.36356,-2.07157
531.4,15.7349,4.37576,-2.07853
534,15.8179,4.3924,-2.08363
536.6,15.9008,4.39665,-2.08898
539.2,15.9833,4.39145,-2.09588
541.8,16.0661,4.39747,-2.1027
544.4,16.1495,4.38241,-2.10854
547,16.232,4.36327,-2.11405
549.6,16.3152,4.33978,-2.12045
552.2,16.3985,4.31391,-2.12792
554.8,16.4817,4.27287,-2.1325
557.4,16.5651,4.22647,-2.13933
560,16.648,4.18781,-2.14455
562.6,16.7308,4.14184,-2.1497
565.2,16.8148,4.08576,-2.15412
567.8,16.8977,4.03864,-2.15863
570.4,16.9813,3.99465,-2.16466
573,17.0648,3.93597,-2.16907
575.6,17.1483,3.88807,-2.17344
578.2,17.2317,3.84683,-2.18008
580.8,17.3154,3.81238,-2.18368
583.4,17.3991,3.77256,-2.18728
586,17.4827,3.73813,-2.19181
588.6,17.5665,3.70646,-2.19488
591.2,17.6505,3.67644,-2.1996
593.8,17.7346,3.6494,-2.20299
596.4,17.8179,3.6194,-2.20715
599,17.9022,3.59528,-2.21072
601.6,17.9863,3.58369,-2.21299
604.2,18.0708,3.57017,-2.21573
606.8,18.1552,3.54651,-2.22146
609.4,18.2401,3.54369,-2.22574
612,18.3256,3.54587,-2.22709
614.6,18.4108,3.53697,-2.2301
617.2,18.496,3.53946,-2.23304
619.8,18.5812,3.53706,-2.23476
622.4,18.6664,3.52818,-2.23804
625,18.7524,3.51951,-2.24195
627.6,18.8375,3.52795,-2.24621
630.2,18.9231,3.52492,-2.24698
632.8,19.0085,3.52702,-2.25092
635.4,19.0943,3.52795,-2.25368
638,19.1793,3.52885,-2.25652
640.6,19.2648,3.53342,-2.25917
643.2,19.3502,3.52781,-2.26354
645.8,19.4357,3.52503,-2.26531
648.4,19.5212,3.51202,-2.26835
651,19.6062,3.51703,-2.26951
653.6,19.6918,3.52038,-2.27328
656.2,19.7772,3.52678,-2.27565
658.8,19.8626,3.52072,-2.27886
661.4,19.9479,3.50972,-2.28064
664,20.0332,3.51157,-2.28332
666.6,20.1186,3.5137,-2.28633
669.2,20.2038,3.51128,-2.28794
671.8,20.2893,3.51504,-2.28913
674.4,20.3739,3.5097,-2.2926
677,20.4588,3.50829,-2.29481
679.6,20.5444,3.50511,-2.2979
682.2,20.6302,3.51169,-2.30074
684.8,20.7148,3.50202,-2.30347
687.4,20.8006,3.50507,-2.30615
690,20.8859,3.50297,-2.30752
692.6,20.9713,3.50448,-2.31016
695.2,21.0569,3.49673,-2.31295
697.8,21.1417,3.48828,-2.31464
700.4,21.2279,3.49204,-2.31849
703,21.313,3.49267,-2.31931
705.6,21.3988,3.48027,-2.32187
708.2,21.4844,3.45867,-2.32471
710.8,21.5702,3.43898,-2.32811
713.4,21.6557,3.40877,-2.32882
716,21.7413,3.39885,-2.33341
718.6,21.8273,3.36475,-2.33527
721.2,21.913,3.33946,-2.33762
723.8,21.9989,3.31059,-2.3408
726.4,22.0846,3.27525,-2.34366
729,22.1704,3.2396,-2.34364
731.6,22.2563,3.20393,-2.3445
734.2,22.342,3.17205,-2.34814
736.8,22.4281,3.13201,-2.35271
739.4,22.5145,3.1062,-2.35266
742,22.6006,3.05421,-2.35432
744.6,22.6863,2.98652,-2.35737
747.2,22.7725,2.9344,-2.35984
749.8,22.8587,2.86021,-2.36276
752.4,22.9448,2.8171,-2.3637
755,23.0313,2.73198,-2.36775
757.6,23.1177,2.6766,-2.37082
760.2,23.2036,2.62215,-2.37296
762.8,23.2899,2.55836,-2.37533
765.4,23.3765,2.51414,-2.37658
768,23.4628,2.46886,-2.37944
770.6,23.5494,2.41616,-2.38197
773.2,23.636,2.36343,-2.38445
775.8,23.7221,2.30367,-2.38615
778.4,23.8087,2.25215,-2.38746
781,23.8944,2.19902,-2.39161
783.6,23.981,2.15463,-2.39234
786.2,24.068,2.10758,-2.3957
788.8,24.1545,2.06407,-2.39816
790,24.1943,2.05308,-2.39884