Folder: fsri_materials_database/01_Data/Memory_Foam_Carpet_Pad/FTIR/IS

File: Memory_Foam_Carpet_Pad_IS_T_221003_R5.dpt
7497.03,0.02632
7473.89,0.02680
7450.74,0.02684
7427.6,0.02521
7404.45,0.03563
7381.31,0.02660
7358.16,0.02877
7335.02,0.01930
7311.87,0.02765
7288.73,0.02061
7265.58,0.02599
7242.44,0.02660
7219.29,0.02237
7196.15,0.02677
7173,0.02572
7149.86,0.02650
7126.71,0.02381
7103.57,0.02795
7080.42,0.02391
7057.28,0.02601
7034.13,0.02581
7010.99,0.02735
6987.84,0.02530
6964.7,0.02435
6941.55,0.03043
6918.41,0.02848
6895.26,0.02483
6872.12,0.01947
6848.97,0.02526
6825.83,0.02234
6802.68,0.02707
6779.54,0.02172
6756.39,0.02478
6733.25,0.02872
6710.1,0.02066
6686.96,0.02280
6663.82,0.02620
6640.67,0.02670
6617.53,0.02109
6594.38,0.02417
6571.24,0.02646
6548.09,0.02151
6524.95,0.01922
6501.8,0.02340
6478.66,0.02300
6455.51,0.02320
6432.37,0.02413
6409.22,0.02640
6386.08,0.02032
6362.93,0.02186
6339.79,0.02341
6316.64,0.02459
6293.5,0.02426
6270.35,0.02357
6247.21,0.02410
6224.06,0.02400
6200.92,0.02194
6177.77,0.02561
6154.63,0.02327
6131.48,0.02522
6108.34,0.02405
6085.19,0.02300
6062.05,0.02316
6038.9,0.02067
6015.76,0.02203
5992.61,0.02461
5969.47,0.02124
5946.32,0.02199
5923.18,0.01974
5900.03,0.02242
5876.89,0.02425
5853.74,0.02412
5830.6,0.02201
5807.45,0.02077
5784.31,0.02091
5761.16,0.02313
5738.02,0.02292
5714.87,0.02232
5691.73,0.02157
5668.58,0.02208
5645.44,0.02092
5622.29,0.02060
5599.15,0.02229
5576,0.02248
5552.86,0.02168
5529.71,0.02281
5506.57,0.02063
5483.42,0.02278
5460.28,0.02140
5437.13,0.02066
5413.99,0.02060
5390.84,0.02169
5367.7,0.02147
5344.55,0.02180
5321.41,0.02313
5298.26,0.02179
5275.12,0.02223
5251.97,0.02294
5228.83,0.02245
5205.68,0.02146
5182.54,0.02355
5159.39,0.02212
5136.25,0.02298
5113.1,0.02261
5089.96,0.02200
5066.81,0.02255
5043.67,0.02247
5020.52,0.02225
4997.38,0.02237
4974.23,0.02324
4951.09,0.02240
4927.94,0.02265
4904.8,0.02261
4881.65,0.02136
4858.51,0.02276
4835.36,0.02350
4812.22,0.02140
4789.07,0.02170
4765.93,0.02247
4742.78,0.02238
4719.64,0.02164
4696.49,0.02324
4673.35,0.02206
4650.2,0.02140
4627.06,0.02146
4603.92,0.02209
4580.77,0.02202
4557.63,0.02197
4534.48,0.02127
4511.34,0.02216
4488.19,0.02227
4465.05,0.02188
4441.9,0.02318
4418.76,0.02263
4395.61,0.02182
4372.47,0.02265
4349.32,0.02209
4326.18,0.02275
4303.03,0.02213
4279.89,0.02314
4256.74,0.02175
4233.6,0.02223
4210.45,0.02245
4187.31,0.02276
4164.16,0.02225
4141.02,0.02224
4117.87,0.02286
4094.73,0.02240
4071.58,0.02258
4048.44,0.02219
4025.29,0.02223
4002.15,0.02196
3979,0.02259
3955.86,0.02265
3932.71,0.02268
3909.57,0.02277
3886.42,0.02326
3863.28,0.02284
3840.13,0.02230
3816.99,0.02258
3793.84,0.02224
3770.7,0.02226
3747.55,0.02207
3724.41,0.02234
3701.26,0.02181
3678.12,0.02253
3654.97,0.02229
3631.83,0.02122
3608.68,0.02152
3585.54,0.02245
3562.39,0.02074
3539.25,0.02054
3516.1,0.02111
3492.96,0.02069
3469.81,0.02054
3446.67,0.02050
3423.52,0.02053
3400.38,0.01971
3377.23,0.01959
3354.09,0.02028
3330.94,0.02000
3307.8,0.01969
3284.65,0.01958
3261.51,0.01972
3238.36,0.02108
3215.22,0.02055
3192.07,0.02036
3168.93,0.02110
3145.78,0.02032
3122.64,0.02042
3099.49,0.02069
3076.35,0.02022
3053.2,0.02068
3030.06,0.02056
3006.91,0.02053
2983.77,0.01963
2960.62,0.01922
2937.48,0.01949
2914.33,0.02022
2891.19,0.02070
2868.04,0.02037
2844.9,0.02090
2821.75,0.02125
2798.61,0.02093
2775.46,0.02101
2752.32,0.02082
2729.17,0.02118
2706.03,0.02080
2682.88,0.02126
2659.74,0.02042
2636.59,0.02100
2613.45,0.02137
2590.3,0.02102
2567.16,0.02076
2544.02,0.02094
2520.87,0.02142
2497.73,0.02098
2474.58,0.02146
2451.44,0.02082
2428.29,0.02069
2405.15,0.02113
2382,0.02106
2358.86,0.02089
2335.71,0.02098
2312.57,0.02116
2289.42,0.02063
2266.28,0.02092
2243.13,0.02118
2219.99,0.02085
2196.84,0.02071
2173.7,0.02056
2150.55,0.02081
2127.41,0.02090
2104.26,0.02047
2081.12,0.02060
2057.97,0.02068
2034.83,0.02069
2011.68,0.02037
1988.54,0.02084
1965.39,0.02011
1942.25,0.02067
1919.1,0.02062
1895.96,0.02044
1872.81,0.01994
1849.67,0.02003
1826.52,0.01986
1803.38,0.01976
1780.23,0.01885
1757.09,0.01737
1733.94,0.01961
1710.8,0.02057
1687.65,0.01910
1664.51,0.01880
1641.36,0.01800
1618.22,0.01862
1595.07,0.01860
1571.93,0.01817
1548.78,0.01802
1525.64,0.01855
1502.49,0.01859
1479.35,0.01823
1456.2,0.01849
1433.06,0.01850
1409.91,0.01837
1386.77,0.01766
1363.62,0.01817
1340.48,0.01790
1317.33,0.01685
1294.19,0.01768
1271.04,0.01905
1247.9,0.02004
1224.75,0.01897
1201.61,0.01884
1178.46,0.01767
1155.32,0.01733
1132.17,0.01808
1109.03,0.01869
1085.88,0.01756
1062.74,0.01944
1039.59,0.01980
1016.45,0.01939
993.304,0.02080
970.159,0.02017
947.014,0.01946
923.869,0.01918
900.724,0.01906
877.579,0.01827
854.434,0.02008
831.289,0.01929
808.144,0.01858
784.999,0.01847
761.854,0.01874
738.709,0.01903
715.565,0.01789
692.42,0.01781
669.275,0.01801
646.13,0.01645
622.985,0.01582
599.84,0.01276