Folder: fsri_materials_database/01_Data/UEBSS/STA/N2/10K_min

File: UEBSS_STA_N2_10KData_240405_R1.csv
Temp./C,Time/min,DSC/(mW/mg),Mass loss/mg
60.0,0.0,0.955997,-0.00252112
62.3,0.253354,1.01355,-0.00388968
64.6,0.506914,1.06801,9.44644e-05
66.9,0.753361,1.0921,-0.00825064
69.2,0.997581,1.11673,-0.00132705
71.5,1.2399,1.14112,-0.000770002
73.8,1.47907,1.15541,-0.00146177
76.1,1.71809,1.1661,-0.00333612
78.4,1.95651,1.18131,-0.00087768
80.7,2.18799,1.18242,-0.00213573
83,2.42568,1.19938,-0.00088
85.3,2.65709,1.2164,0.00176246
87.6,2.88807,1.23776,0.000439896
89.9,3.11838,1.24955,-0.00220038
92.2,3.34724,1.25452,0.00185488
94.5,3.57575,1.2823,0.000334127
96.8,3.80294,1.29786,0.000329185
99.1,4.02876,1.30976,-0.0020369
101.4,4.24903,1.31912,-0.00162769
103.7,4.47741,1.32797,0.000430008
106,4.6995,1.34898,-0.000959078
108.3,4.92459,1.36095,0.00519316
110.6,5.14827,1.37298,-0.000722967
112.9,5.37187,1.38444,0.0048231
115.2,5.59481,1.38574,0.000834933
117.5,5.81744,1.39659,0.00348476
119.8,6.03955,1.41253,0.000176391
122.1,6.26121,1.41716,0.00265318
124.4,6.48343,1.42399,0.00244956
126.7,6.70499,1.43206,-0.00154
129,6.92717,1.45537,0.00211789
131.3,7.14918,1.46332,0.00569355
133.6,7.36639,1.46966,0.00425986
135.9,7.58626,1.48045,0.00330407
138.2,7.80727,1.48968,0.0043335
140.5,8.03035,1.50075,0.00891075
142.8,8.25074,1.5182,0.0024077
145.1,8.46976,1.52919,0.00523763
147.4,8.69108,1.52248,0.00027769
149.7,8.91132,1.53478,0.00306964
152,9.13049,1.55871,0.00748086
154.3,9.34974,1.56841,0.00513449
156.6,9.56914,1.57487,0.00482856
158.9,9.79001,1.58408,0.00125918
161.2,10.0099,1.5983,0.00530928
163.5,10.2297,1.61859,0.00801672
165.8,10.449,1.62095,0.0079184
168.1,10.6694,1.62905,0.00131843
170.4,10.8892,1.65789,0.0054418
172.7,11.1082,1.65335,0.00537001
175,11.3272,1.6751,0.00537264
177.3,11.5467,1.67422,0.00536999
179.6,11.7645,1.69669,0.00404204
181.9,11.9837,1.69499,0.00142889
184.2,12.2012,1.70192,0.0027204
186.5,12.4205,1.71801,0.000820039
188.8,12.6384,1.71936,0.00472
191.1,12.8548,1.73583,0.000161611
193.4,13.0762,1.74936,0.00373235
195.7,13.2946,1.75557,-0.00176487
198,13.5124,1.76674,0.000512957
200.3,13.7324,1.78118,-0.00205769
202.6,13.9502,1.79892,0.000706731
204.9,14.1705,1.81819,-0.00223171
207.2,14.3884,1.84953,-0.00339116
209.5,14.6047,1.87524,-0.00471804
211.8,14.8262,1.89671,-0.00735851
214.1,15.0466,1.9458,-0.0117542
216.4,15.2657,1.99908,-0.014198
218.7,15.4845,2.05576,-0.0115011
221,15.7053,2.14154,-0.0184502
223.3,15.9254,2.22716,-0.02548
225.6,16.1456,2.37048,-0.022389
227.9,16.3676,2.57808,-0.0267138
230.2,16.5889,2.8691,-0.029439
232.5,16.8149,3.38941,-0.0364338
234.8,17.043,4.17686,-0.0442798
237.1,17.2607,3.9873,-0.0515151
239.4,17.4738,3.38164,-0.0597293
241.7,17.6913,3.31883,-0.0678388
244,17.9106,3.4648,-0.0807517
246.3,18.1319,3.70061,-0.102566
248.6,18.3543,3.95696,-0.11977
250.9,18.5772,4.26113,-0.135755
253.2,18.8005,4.59828,-0.158559
255.5,19.0245,4.95779,-0.184958
257.8,19.2487,5.35692,-0.214349
260.1,19.4734,5.77447,-0.249969
262.4,19.6978,6.23117,-0.28876
264.7,19.9234,6.66356,-0.336997
267,20.1474,7.01312,-0.386913
269.3,20.3713,7.21679,-0.446417
271.6,20.5911,7.15113,-0.512377
273.9,20.8067,6.69832,-0.569913
276.2,21.0156,5.80341,-0.627353
278.5,21.2217,4.65982,-0.672747
280.8,21.428,3.64607,-0.70671
283.1,21.6377,2.86604,-0.735813
285.4,21.8493,2.34735,-0.755596
287.7,22.0636,2.00742,-0.782606
290,22.2793,1.81775,-0.794403
292.3,22.496,1.70045,-0.802075
294.6,22.7146,1.63633,-0.809455
296.9,22.9331,1.59318,-0.818761
299.2,23.1524,1.56264,-0.826354
301.5,23.3718,1.52852,-0.847
303.8,23.5933,1.51635,-0.853927
306.1,23.8131,1.50056,-0.864965
308.4,24.0334,1.48963,-0.875193
310.7,24.2525,1.47239,-0.887213
313,24.4739,1.4634,-0.89693
315.3,24.6941,1.44847,-0.903131
317.6,24.9134,1.4248,-0.915454
319.9,25.136,1.41675,-0.924761
322.2,25.3575,1.42139,-0.93609
324.5,25.5782,1.41755,-0.947835
326.8,25.7987,1.40239,-0.956304
329.1,26.0202,1.37485,-0.968252
331.4,26.2419,1.38545,-0.978173
333.7,26.4628,1.35351,-0.985529
336,26.6848,1.33802,-0.99952
338.3,26.9063,1.34657,-1.01071
340.6,27.1289,1.32975,-1.01694
342.9,27.3495,1.32575,-1.03095
345.2,27.5717,1.30888,-1.03549
347.5,27.7938,1.30151,-1.0416
349.8,28.0165,1.30351,-1.05601
352.1,28.2394,1.29134,-1.06331
354.4,28.4621,1.28503,-1.0724
356.7,28.6844,1.2731,-1.07798
359,28.9079,1.26514,-1.08191
361.3,29.1308,1.25897,-1.09597
363.6,29.3541,1.25915,-1.09992
365.9,29.579,1.24436,-1.10771
368.2,29.8025,1.23582,-1.11083
370.5,30.0258,1.21927,-1.11761
372.8,30.2492,1.2201,-1.12518
375.1,30.4738,1.20994,-1.12647
377.4,30.6969,1.20079,-1.1318
379.7,30.9215,1.19026,-1.13747
382,31.1457,1.18343,-1.14624
384.3,31.3709,1.17661,-1.14938
386.6,31.5952,1.16775,-1.15229
388.9,31.8203,1.16693,-1.14533
391.2,32.0448,1.15553,-1.15633
393.5,32.2675,1.14843,-1.16621
395.8,32.4953,1.14676,-1.16535
398.1,32.7193,1.14986,-1.1625
400.4,32.9444,1.14532,-1.16888
402.7,33.1692,1.15923,-1.17516
405,33.3948,1.16214,-1.17512
407.3,33.6199,1.16758,-1.1784
409.6,33.8446,1.17638,-1.17699
411.9,34.07,1.18459,-1.1848
414.2,34.2969,1.19737,-1.19115
416.5,34.523,1.21247,-1.1934
418.8,34.7479,1.2174,-1.19837
421.1,34.9736,1.2237,-1.20554
423.4,35.1997,1.24435,-1.2146
425.7,35.4266,1.278,-1.21166
428,35.6521,1.29457,-1.2226
430.3,35.8793,1.33179,-1.23058
432.6,36.1072,1.36581,-1.23967
434.9,36.3342,1.40495,-1.25099
437.2,36.5604,1.4441,-1.27177
439.5,36.7884,1.49979,-1.28234
441.8,37.0171,1.57204,-1.29787
444.1,37.2444,1.63434,-1.32478
446.4,37.4718,1.69521,-1.34756
448.7,37.7009,1.76756,-1.3761
451,37.9292,1.84507,-1.40614
453.3,38.1566,1.90995,-1.44963
455.6,38.3847,1.9902,-1.48712
457.9,38.6135,2.049,-1.532
460.2,38.8412,2.10362,-1.58837
462.5,39.0689,2.13111,-1.65477
464.8,39.2965,2.16712,-1.71177
467.1,39.5244,2.17816,-1.78349
469.4,39.7535,2.15602,-1.85099
471.7,39.9804,2.10138,-1.92391
474,40.2074,2.01463,-1.99859
476.3,40.4335,1.88883,-2.06796
478.6,40.6597,1.72879,-2.13036
480.9,40.886,1.55991,-2.19416
483.2,41.1117,1.36573,-2.25037
485.5,41.339,1.16614,-2.28455
487.8,41.5631,0.985897,-2.31687
490.1,41.7938,0.84378,-2.33732
492.4,42.0215,0.769655,-2.34965
494.7,42.2472,0.700269,-2.35228
497,42.4769,0.664438,-2.36217
499.3,42.7058,0.63435,-2.36495
501.6,42.9344,0.625559,-2.36648
503.9,43.163,0.621285,-2.36243
506.2,43.3917,0.599605,-2.37317
508.5,43.6203,0.593886,-2.37021
510.8,43.8494,0.632394,-2.3676
513.1,44.0789,0.661275,-2.36844
515.4,44.3087,0.656415,-2.36834
517.7,44.5379,0.642994,-2.36985
520,44.7676,0.647572,-2.3714
522.3,44.9971,0.641575,-2.37264
524.6,45.2263,0.619993,-2.37538
526.9,45.4548,0.614682,-2.37371
529.2,45.6856,0.60408,-2.37361
531.5,45.9148,0.587329,-2.37369
533.8,46.1426,0.557112,-2.3748
536.1,46.3743,0.525133,-2.37193
538.4,46.6047,0.499044,-2.37644
540.7,46.8346,0.456029,-2.36748
543,47.0664,0.433731,-2.38049
545.3,47.2968,0.436185,-2.37205
547.6,47.5273,0.428125,-2.37504
549.9,47.7575,0.420241,-2.38411
552.2,47.988,0.427159,-2.36928
554.5,48.2188,0.414153,-2.37913
556.8,48.4479,0.398227,-2.37828
559.1,48.6787,0.394814,-2.37216
561.4,48.9086,0.383808,-2.38053
563.7,49.1394,0.372395,-2.38237
566,49.3695,0.354753,-2.3781
568.3,49.6,0.353135,-2.37618
570.6,49.8303,0.349357,-2.37289
572.9,50.0613,0.341394,-2.37428
575.2,50.2918,0.33896,-2.37527
577.5,50.522,0.325697,-2.3742
579.8,50.753,0.321062,-2.37941
582.1,50.9843,0.332851,-2.37553
584.4,51.2169,0.309279,-2.37455
586.7,51.4475,0.300782,-2.37692
589,51.6791,0.287201,-2.37585
591.3,51.9107,0.288516,-2.37431
593.6,52.1408,0.281858,-2.37296
595.9,52.3719,0.27046,-2.37475
598.2,52.6045,0.285881,-2.37958
600.5,52.8353,0.28622,-2.37781
602.8,53.0675,0.284177,-2.37994
605.1,53.2995,0.281025,-2.37527
607.4,53.5317,0.288795,-2.37593
609.7,53.7631,0.292153,-2.3767
612,53.9938,0.303487,-2.37772
614.3,54.2251,0.296096,-2.37745
616.6,54.4573,0.308983,-2.37374
618.9,54.6881,0.309537,-2.379
621.2,54.9196,0.307387,-2.3758
623.5,55.1509,0.313513,-2.37879
625.8,55.3822,0.311117,-2.38241
628.1,55.6146,0.327624,-2.37805
630.4,55.847,0.32023,-2.38044
632.7,56.0802,0.346476,-2.379
635,56.3132,0.340632,-2.37908
637.3,56.547,0.344506,-2.37977
639.6,56.7804,0.354252,-2.3824
641.9,57.0124,0.34185,-2.37968
644.2,57.2457,0.33998,-2.3777
646.5,57.4784,0.354089,-2.38121
648.8,57.7095,0.344928,-2.38058
651.1,57.943,0.349368,-2.38228
653.4,58.1769,0.358323,-2.38014
655.7,58.4107,0.339048,-2.38477
658,58.6432,0.325753,-2.39212
660.3,58.8771,0.321451,-2.3808
662.6,59.1096,0.324457,-2.38276
664.9,59.3427,0.32318,-2.38175
667.2,59.5761,0.312412,-2.38825
669.5,59.8076,0.298357,-2.38778
671.8,60.0409,0.307177,-2.3814
674.1,60.2739,0.285489,-2.38687
676.4,60.5069,0.290438,-2.38778
678.7,60.7397,0.288134,-2.3881
681,60.9748,0.300788,-2.38285
683.3,61.2095,0.299224,-2.38684
685.6,61.4438,0.305216,-2.38844
687.9,61.6769,0.287286,-2.38976
690.2,61.9102,0.284519,-2.38952
692.5,62.1442,0.295475,-2.3832
694.8,62.3774,0.286633,-2.38965
697.1,62.6107,0.278816,-2.38769
699.4,62.8434,0.283539,-2.3839
701.7,63.0772,0.268649,-2.39004
704,63.3106,0.276821,-2.38556
706.3,63.5427,0.27324,-2.38825
708.6,63.7769,0.283893,-2.39087
710.9,64.0099,0.29302,-2.39181
713.2,64.2427,0.312751,-2.38861
715.5,64.478,0.316659,-2.3873
717.8,64.7113,0.312101,-2.39207
720.1,64.9459,0.32206,-2.39261
722.4,65.1803,0.320319,-2.39198
724.7,65.4155,0.318671,-2.38714
727,65.6482,0.32898,-2.388
729.3,65.8828,0.278563,-2.38267
731.6,66.117,0.257855,-2.39175
733.9,66.35,0.260908,-2.39222
736.2,66.5847,0.266361,-2.3934
738.5,66.819,0.265437,-2.39395
740,66.9706,0.266383,-2.3913