Folder: fsri_materials_database/01_Data/UEBSS/STA/N2/30K_min

File: UEBSS_STA_N2_30KData_240404_R1.csv
Temp./C,Time/min,DSC/(mW/mg),Mass loss/mg
60.0,0.0,1.71797,-0.0203166
62.3,0.112494,1.95651,-0.0190721
64.6,0.216929,2.16449,-0.0219268
66.9,0.314812,2.34727,-0.0209876
69.2,0.40949,2.49848,-0.0213304
71.5,0.500088,2.63096,-0.0213783
73.8,0.58785,2.75485,-0.0228611
76.1,0.673339,2.86178,-0.0211581
78.4,0.757595,2.9614,-0.0206569
80.7,0.839961,3.04262,-0.0218034
83,0.921135,3.12149,-0.022254
85.3,1.00151,3.1835,-0.0226359
87.6,1.0813,3.23785,-0.0222175
89.9,1.15914,3.29529,-0.0222713
92.2,1.23696,3.34155,-0.0222389
94.5,1.31403,3.39057,-0.023681
96.8,1.39103,3.43459,-0.023698
99.1,1.46744,3.46437,-0.0236947
101.4,1.54343,3.51935,-0.0237
103.7,1.61926,3.56401,-0.0235812
106,1.6946,3.5974,-0.0237863
108.3,1.77037,3.63941,-0.02404
110.6,1.84552,3.67896,-0.0250095
112.9,1.92093,3.71093,-0.0253684
115.2,1.99604,3.74443,-0.0250334
117.5,2.07112,3.77567,-0.0250729
119.8,2.14618,3.81303,-0.0263937
122.1,2.22106,3.83028,-0.026342
124.4,2.29582,3.8632,-0.0276604
126.7,2.37036,3.89393,-0.0263824
129,2.44448,3.91415,-0.0263405
131.3,2.51862,3.93961,-0.0276585
133.6,2.59273,3.97018,-0.0276615
135.9,2.66648,3.98974,-0.0275805
138.2,2.74017,4.02304,-0.02799
140.5,2.81346,4.06269,-0.02799
142.8,2.88665,4.07391,-0.0289462
145.1,2.95903,4.11217,-0.0285922
147.4,3.03209,4.13843,-0.02897
149.7,3.1046,4.16245,-0.028992
152,3.17745,4.19249,-0.029306
154.3,3.24964,4.22752,-0.0306305
156.6,3.32169,4.25218,-0.03063
158.9,3.39351,4.2901,-0.0312743
161.2,3.46621,4.31055,-0.0319239
163.5,3.53808,4.34902,-0.0326101
165.8,3.60999,4.37897,-0.03261
168.1,3.68151,4.41092,-0.03261
170.4,3.75344,4.43644,-0.0326098
172.7,3.82454,4.47006,-0.0339298
175,3.89602,4.51887,-0.03392
177.3,3.96753,4.54394,-0.03392
179.6,4.03877,4.58101,-0.03392
181.9,4.1093,4.6232,-0.0338634
184.2,4.17933,4.65384,-0.03457
186.5,4.2513,4.68581,-0.0345701
188.8,4.32148,4.73904,-0.0358895
191.1,4.39216,4.7698,-0.0363741
193.4,4.46237,4.81802,-0.0371817
195.7,4.53246,4.84442,-0.0375337
198,4.60277,4.88405,-0.0375401
200.3,4.67212,4.90629,-0.0388114
202.6,4.7426,4.94945,-0.0401837
204.9,4.81262,4.99103,-0.0400745
207.2,4.88281,5.02746,-0.0405
209.5,4.95243,5.07508,-0.0405005
211.8,5.02274,5.11987,-0.0418184
214.1,5.09281,5.18044,-0.0423239
216.4,5.16301,5.25581,-0.0441288
218.7,5.23242,5.33325,-0.0449055
221,5.30277,5.42986,-0.0465538
223.3,5.37266,5.56623,-0.0471827
225.6,5.44277,5.72394,-0.0495926
227.9,5.51281,5.95391,-0.0511213
230.2,5.58404,6.2686,-0.0535378
232.5,5.65544,6.81754,-0.0537287
234.8,5.72852,7.79768,-0.056364
237.1,5.80179,8.77907,-0.0605864
239.4,5.87086,8.83548,-0.0635637
241.7,5.93889,8.24786,-0.0669494
244,6.0068,7.75003,-0.0702515
246.3,6.07527,7.5018,-0.0764045
248.6,6.14431,7.45816,-0.082942
250.9,6.21402,7.56711,-0.0908574
253.2,6.28443,7.79072,-0.0983282
255.5,6.35396,8.09439,-0.106403
257.8,6.42513,8.47987,-0.118472
260.1,6.49594,8.93353,-0.129375
262.4,6.56637,9.43318,-0.14268
264.7,6.63821,10.0194,-0.157728
267,6.70987,10.6701,-0.175899
269.3,6.78193,11.3748,-0.19619
271.6,6.85381,12.158,-0.220541
273.9,6.92641,13.0286,-0.245328
276.2,6.99921,13.9516,-0.27423
278.5,7.0723,14.9454,-0.306278
280.8,7.14538,15.9587,-0.342145
283.1,7.21893,16.9594,-0.382912
285.4,7.29192,17.8522,-0.428283
287.7,7.36411,18.5618,-0.472942
290,7.43536,18.9655,-0.520165
292.3,7.50486,18.9354,-0.568251
294.6,7.57246,18.3056,-0.614935
296.9,7.6379,16.9655,-0.653023
299.2,7.70044,15.0295,-0.686014
301.5,7.76244,12.9149,-0.715514
303.8,7.82501,10.9527,-0.738262
306.1,7.88841,9.29226,-0.759455
308.4,7.95244,7.94466,-0.774954
310.7,8.01793,6.89707,-0.791353
313,8.08335,6.11596,-0.803088
315.3,8.15053,5.53983,-0.815306
317.6,8.21772,5.12823,-0.82603
319.9,8.28573,4.83248,-0.837374
322.2,8.35416,4.61296,-0.84759
324.5,8.42249,4.46012,-0.861157
326.8,8.49106,4.34643,-0.871784
329.1,8.55983,4.24758,-0.882012
331.4,8.62906,4.17871,-0.890615
333.7,8.69798,4.1257,-0.898841
336,8.76696,4.07467,-0.908943
338.3,8.83705,4.03332,-0.918901
340.6,8.90662,3.9973,-0.92724
342.9,8.97621,3.96074,-0.935938
345.2,9.04607,3.9378,-0.945167
347.5,9.11596,3.91187,-0.954791
349.8,9.18582,3.8853,-0.964186
352.1,9.25564,3.87086,-0.973886
354.4,9.32558,3.84516,-0.983405
356.7,9.39616,3.81432,-0.992776
359,9.4662,3.79159,-1.00383
361.3,9.53588,3.76623,-1.01507
363.6,9.60669,3.74391,-1.02655
365.9,9.67711,3.72023,-1.03717
368.2,9.74761,3.67347,-1.0477
370.5,9.81816,3.65887,-1.05833
372.8,9.88855,3.62491,-1.06705
375.1,9.95909,3.60022,-1.07769
377.4,10.0299,3.57118,-1.0865
379.7,10.1006,3.54277,-1.09514
382,10.1713,3.51502,-1.10422
384.3,10.2424,3.48704,-1.11236
386.6,10.3132,3.45886,-1.12168
388.9,10.3842,3.44241,-1.13038
391.2,10.4557,3.43679,-1.13826
393.5,10.5266,3.43938,-1.14689
395.8,10.5978,3.43417,-1.15422
398.1,10.6691,3.43118,-1.1609
400.4,10.7407,3.4269,-1.17022
402.7,10.8122,3.41533,-1.17765
405,10.8831,3.40719,-1.18341
407.3,10.9553,3.38792,-1.19023
409.6,11.0269,3.37975,-1.19649
411.9,11.0982,3.38131,-1.20191
414.2,11.1703,3.37097,-1.20748
416.5,11.2419,3.35501,-1.21384
418.8,11.3136,3.35472,-1.22014
421.1,11.3855,3.35838,-1.2236
423.4,11.4572,3.35629,-1.2279
425.7,11.5296,3.36572,-1.23403
428,11.6018,3.3672,-1.24106
430.3,11.674,3.3826,-1.24554
432.6,11.7462,3.39774,-1.25253
434.9,11.8185,3.41181,-1.25746
437.2,11.8908,3.44129,-1.26325
439.5,11.9632,3.48156,-1.2694
441.8,12.0359,3.51094,-1.27637
444.1,12.1085,3.54793,-1.28379
446.4,12.1805,3.59617,-1.29188
448.7,12.2541,3.65218,-1.301
451,12.327,3.72907,-1.30874
453.3,12.4,3.8108,-1.32038
455.6,12.4732,3.90276,-1.33219
457.9,12.5462,4.00132,-1.34514
460.2,12.6198,4.12523,-1.3597
462.5,12.6933,4.25919,-1.37502
464.8,12.7667,4.41096,-1.39351
467.1,12.8407,4.56415,-1.41443
469.4,12.9145,4.74358,-1.4386
471.7,12.9888,4.92603,-1.46642
474,13.0628,5.14484,-1.49745
476.3,13.1368,5.34677,-1.5332
478.6,13.2115,5.5583,-1.57368
480.9,13.2859,5.7538,-1.61812
483.2,13.3601,5.92827,-1.6663
485.5,13.4344,6.09738,-1.7183
487.8,13.5086,6.1985,-1.77629
490.1,13.5825,6.24308,-1.83599
492.4,13.6568,6.21064,-1.8993
494.7,13.73,6.09769,-1.96278
497,13.8037,5.87964,-2.02405
499.3,13.8762,5.54737,-2.08417
501.6,13.949,5.10402,-2.14275
503.9,14.0212,4.55548,-2.19755
506.2,14.0934,3.94129,-2.24635
508.5,14.1652,3.26964,-2.28669
510.8,14.237,2.65253,-2.31907
513.1,14.3094,2.1412,-2.34234
515.4,14.3821,1.79015,-2.35871
517.7,14.4551,1.52127,-2.36868
520,14.5285,1.32454,-2.37752
522.3,14.6015,1.19077,-2.38485
524.6,14.6753,1.09517,-2.3886
526.9,14.7488,1.03035,-2.39113
529.2,14.8226,0.983757,-2.39107
531.5,14.8963,0.957629,-2.39393
533.8,14.9702,0.942973,-2.39525
536.1,15.0439,0.924309,-2.39772
538.4,15.1182,0.901648,-2.40066
540.7,15.1922,0.890502,-2.40194
543,15.2663,0.88328,-2.40221
545.3,15.3408,0.884246,-2.40522
547.6,15.4147,0.882604,-2.40655
549.9,15.4892,0.878285,-2.40852
552.2,15.5635,0.870091,-2.41036
554.5,15.6379,0.873512,-2.41248
556.8,15.7126,0.876762,-2.41377
559.1,15.787,0.87783,-2.41379
561.4,15.8618,0.8767,-2.41379
563.7,15.9366,0.887441,-2.41379
566,16.0113,0.885336,-2.41611
568.3,16.0859,0.886437,-2.41643
570.6,16.1612,0.893477,-2.41643
572.9,16.2362,0.904601,-2.41691
575.2,16.3107,0.90625,-2.41775
577.5,16.3861,0.91031,-2.41782
579.8,16.4608,0.916284,-2.41787
582.1,16.5362,0.924951,-2.41773
584.4,16.6117,0.943147,-2.41775
586.7,16.6871,0.952179,-2.418
589,16.7623,0.966608,-2.41907
591.3,16.838,0.983705,-2.41908
593.6,16.9135,1.01693,-2.42319
595.9,16.9881,1.02985,-2.42575
598.2,17.0647,1.0481,-2.42599
600.5,17.1403,1.05848,-2.42599
602.8,17.2155,1.06867,-2.42599
605.1,17.2921,1.06474,-2.4286
607.4,17.368,1.06252,-2.42861
609.7,17.4441,1.05553,-2.42824
612,17.5195,1.05188,-2.42961
614.3,17.5956,1.06038,-2.4296
616.6,17.6717,1.04592,-2.43092
618.9,17.7479,1.04362,-2.43092
621.2,17.824,1.02917,-2.43125
623.5,17.9003,1.02373,-2.43125
625.8,17.9764,1.02638,-2.43125
628.1,18.0525,1.00732,-2.43389
630.4,18.1289,0.999168,-2.43521
632.7,18.205,0.984486,-2.43521
635,18.2814,0.983229,-2.43521
637.3,18.3572,0.977094,-2.43796
639.6,18.4337,0.967267,-2.44065
641.9,18.5102,0.956353,-2.44059
644.2,18.5863,0.943839,-2.44059
646.5,18.6625,0.942637,-2.44059
648.8,18.7386,0.93218,-2.43928
651.1,18.8149,0.933885,-2.44058
653.4,18.8913,0.925877,-2.44059
655.7,18.9677,0.919083,-2.43823
658,19.0435,0.91708,-2.43795
660.3,19.1201,0.900538,-2.43793
662.6,19.1961,0.89343,-2.43827
664.9,19.2724,0.885906,-2.43906
667.2,19.3489,0.8799,-2.4396
669.5,19.4251,0.86413,-2.4396
671.8,19.5017,0.854078,-2.44149
674.1,19.5778,0.847535,-2.44336
676.4,19.6541,0.83185,-2.4436
678.7,19.7307,0.828345,-2.44498
681,19.807,0.815056,-2.44828
683.3,19.8837,0.803961,-2.44936
685.6,19.9601,0.792031,-2.44936
687.9,20.0367,0.783235,-2.44805
690.2,20.1131,0.761936,-2.44693
692.5,20.1898,0.756007,-2.44739
694.8,20.266,0.734899,-2.44739
697.1,20.3437,0.720351,-2.44739
699.4,20.4203,0.705771,-2.44739
701.7,20.4973,0.701433,-2.44749
704,20.5742,0.680985,-2.44607
706.3,20.6512,0.668745,-2.44574
708.6,20.7283,0.659039,-2.44574
710.9,20.8054,0.645559,-2.44574
713.2,20.8824,0.626044,-2.44443
715.5,20.9597,0.626317,-2.4452
717.8,21.0369,0.60632,-2.44576
720.1,21.1144,0.596026,-2.44702
722.4,21.1917,0.599861,-2.44837
724.7,21.2693,0.603005,-2.44706
727,21.3466,0.600215,-2.44708
729.3,21.4242,0.580992,-2.44871
731.6,21.5017,0.556556,-2.44871
733.9,21.5792,0.537142,-2.44863
736.2,21.6568,0.526474,-2.4514
738.5,21.7344,0.516692,-2.45274
740,21.7853,0.502095,-2.45266

File: UEBSS_STA_N2_30KData_240405_R2.csv
Temp./C,Time/min,DSC/(mW/mg),Mass loss/mg
60.0,0.0,1.82637,-0.00415889
62.3,0.112919,2.07228,-0.004615
64.6,0.217435,2.28656,-0.00372866
66.9,0.316839,2.47097,-0.00246935
69.2,0.409132,2.62914,-0.00253374
71.5,0.50126,2.79018,-0.0017874
73.8,0.589012,2.90708,-0.00151222
76.1,0.675519,3.02243,-0.00315594
78.4,0.759535,3.11601,-0.00433851
80.7,0.842385,3.20103,-0.00307738
83,0.923077,3.27487,-0.00556981
85.3,1.00448,3.34715,-0.00591319
87.6,1.08381,3.42068,-0.0055547
89.9,1.16232,3.47466,-0.00718448
92.2,1.2395,3.54187,-0.00629678
94.5,1.31795,3.59075,-0.00753814
96.8,1.39507,3.64413,-0.00495882
99.1,1.47152,3.69569,-0.00493448
101.4,1.54763,3.74788,-0.00495003
103.7,1.62365,3.79282,-0.00492398
106,1.69956,3.83609,-0.00530026
108.3,1.77499,3.87827,-0.00573724
110.6,1.85101,3.92155,-0.00566992
112.9,1.9262,3.95487,-0.00658903
115.2,2.00179,3.99854,-0.00625987
117.5,2.0771,4.04375,-0.00622256
119.8,2.15231,4.08654,-0.00625465
122.1,2.2267,4.1159,-0.0075798
124.4,2.30197,4.15443,-0.00626143
126.7,2.37653,4.18264,-0.00626
129,2.45137,4.22824,-0.00626
131.3,2.52509,4.25607,-0.0075602
133.6,2.59915,4.28283,-0.00625937
135.9,2.67305,4.30837,-0.00626001
138.2,2.74669,4.33739,-0.00636059
140.5,2.82018,4.3744,-0.00763903
142.8,2.89326,4.39948,-0.00790088
145.1,2.9656,4.42593,-0.00789884
147.4,3.03778,4.46674,-0.00922029
149.7,3.11118,4.49983,-0.00922
152,3.18337,4.52985,-0.00921999
154.3,3.25504,4.57407,-0.00794331
156.6,3.32769,4.60928,-0.00724678
158.9,3.39976,4.64248,-0.00679552
161.2,3.47157,4.68246,-0.00658999
163.5,3.54363,4.71493,-0.00659
165.8,3.61485,4.7526,-0.00656963
168.1,3.68631,4.78522,-0.00789954
170.4,3.75769,4.8174,-0.00922014
172.7,3.82921,4.84032,-0.00692342
175,3.90042,4.8855,-0.00698267
177.3,3.97147,4.91379,-0.00955576
179.6,4.04276,4.9471,-0.00957559
181.9,4.11332,4.97949,-0.0108699
184.2,4.18394,5.02557,-0.01087
186.5,4.2547,5.05881,-0.0108377
188.8,4.32494,5.09565,-0.0115302
191.1,4.39529,5.13469,-0.0121895
193.4,4.46554,5.17894,-0.0135101
195.7,4.53566,5.19672,-0.0148197
198,4.60545,5.22677,-0.0154794
200.3,4.67557,5.26001,-0.0153198
202.6,4.74545,5.30663,-0.0151528
204.9,4.81511,5.34145,-0.01647
207.2,4.88508,5.37111,-0.0164718
209.5,4.95497,5.42353,-0.0191201
211.8,5.02483,5.47091,-0.0177152
214.1,5.09424,5.52808,-0.0177277
216.4,5.16399,5.59283,-0.0177285
218.7,5.23385,5.67176,-0.0191422
221,5.30355,5.77007,-0.0204292
223.3,5.37317,5.8887,-0.020382
225.6,5.44293,6.04279,-0.0230514
227.9,5.5135,6.25233,-0.0256885
230.2,5.5835,6.57113,-0.0264147
232.5,5.65501,7.0846,-0.0287319
234.8,5.72735,8.01383,-0.0313041
237.1,5.80081,9.06361,-0.0343543
239.4,5.87049,9.15081,-0.037572
241.7,5.9377,8.55943,-0.0408037
244,6.00569,8.04623,-0.0453442
246.3,6.07405,7.7966,-0.0494492
248.6,6.14325,7.74981,-0.0559995
250.9,6.21289,7.85561,-0.062163
253.2,6.28247,8.05865,-0.0699841
255.5,6.3528,8.35557,-0.0809981
257.8,6.4236,8.73629,-0.0902904
260.1,6.4945,9.16743,-0.100203
262.4,6.56548,9.67931,-0.11137
264.7,6.63645,10.2366,-0.125932
267,6.70786,10.8631,-0.143477
269.3,6.77987,11.5655,-0.16244
271.6,6.85216,12.3482,-0.183099
273.9,6.92474,13.201,-0.207505
276.2,6.99749,14.1285,-0.234363
278.5,7.07072,15.1216,-0.266368
280.8,7.14413,16.1584,-0.301768
283.1,7.2175,17.1581,-0.340796
285.4,7.29089,18.0986,-0.384911
287.7,7.36336,18.8437,-0.432021
290,7.43468,19.2634,-0.479856
292.3,7.5046,19.2142,-0.528848
294.6,7.57238,18.5571,-0.576324
296.9,7.63759,17.197,-0.619362
299.2,7.70064,15.3445,-0.657631
301.5,7.76337,13.3195,-0.690656
303.8,7.8256,11.4621,-0.718309
306.1,7.88974,9.7971,-0.740177
308.4,7.95358,8.45707,-0.759111
310.7,8.01918,7.40278,-0.773899
313,8.0854,6.59956,-0.787463
315.3,8.15244,6.03639,-0.798278
317.6,8.21979,5.62049,-0.80636
319.9,8.28796,5.32095,-0.817693
322.2,8.3561,5.12008,-0.825723
324.5,8.42482,4.96811,-0.834288
326.8,8.49313,4.87137,-0.84233
329.1,8.56232,4.78225,-0.852086
331.4,8.63143,4.71103,-0.862512
333.7,8.70089,4.66523,-0.872412
336,8.77036,4.62768,-0.879839
338.3,8.83996,4.60195,-0.888567
340.6,8.90984,4.55996,-0.89736
342.9,8.97936,4.52916,-0.907868
345.2,9.04886,4.49399,-0.916198
347.5,9.11901,4.46622,-0.927414
349.8,9.18902,4.43943,-0.93683
352.1,9.25926,4.423,-0.945414
354.4,9.3297,4.39935,-0.955041
356.7,9.39987,4.37197,-0.964959
359,9.47003,4.3573,-0.975187
361.3,9.54064,4.32712,-0.984241
363.6,9.61095,4.28801,-0.994313
365.9,9.68161,4.27091,-1.00303
368.2,9.75246,4.2423,-1.01282
370.5,9.82287,4.22237,-1.02095
372.8,9.89385,4.19524,-1.03322
375.1,9.96459,4.16318,-1.04179
377.4,10.0355,4.15997,-1.05116
379.7,10.1065,4.1265,-1.06025
382,10.1776,4.11173,-1.06915
384.3,10.2485,4.08633,-1.07702
386.6,10.3193,4.07196,-1.08622
388.9,10.3911,4.07804,-1.09516
391.2,10.4626,4.0603,-1.10206
393.5,10.5342,4.05189,-1.1088
395.8,10.6057,4.04924,-1.11596
398.1,10.6771,4.02602,-1.12092
400.4,10.749,4.01908,-1.12841
402.7,10.8208,3.98995,-1.1337
405,10.8925,3.97719,-1.14013
407.3,10.9642,3.95853,-1.14567
409.6,11.0362,3.94334,-1.15081
411.9,11.1081,3.91202,-1.15765
414.2,11.1801,3.89825,-1.1624
416.5,11.252,3.88582,-1.1697
418.8,11.3242,3.87468,-1.17756
421.1,11.3965,3.87915,-1.17978
423.4,11.4685,3.88822,-1.18351
425.7,11.5403,3.88522,-1.18664
428,11.6129,3.89344,-1.19004
430.3,11.6855,3.90702,-1.19509
432.6,11.7579,3.92612,-1.19891
434.9,11.8301,3.94901,-1.20418
437.2,11.9031,3.96546,-1.20878
439.5,11.9756,3.99633,-1.21224
441.8,12.0482,4.04245,-1.21851
444.1,12.1206,4.08524,-1.22523
446.4,12.1941,4.14344,-1.23304
448.7,12.2668,4.20902,-1.24003
451,12.34,4.28672,-1.24765
453.3,12.4131,4.35893,-1.25432
455.6,12.4861,4.45938,-1.26347
457.9,12.5593,4.55386,-1.27509
460.2,12.6332,4.66676,-1.28782
462.5,12.7066,4.77373,-1.30183
464.8,12.7804,4.91034,-1.32004
467.1,12.8539,5.06941,-1.33888
469.4,12.9278,5.26599,-1.36233
471.7,13.002,5.464,-1.38938
474,13.0754,5.66883,-1.41931
476.3,13.15,5.89033,-1.45312
478.6,13.2246,6.10543,-1.49083
480.9,13.2994,6.29672,-1.53285
483.2,13.3737,6.47658,-1.58109
485.5,13.4482,6.62281,-1.63719
487.8,13.5221,6.71542,-1.69573
490.1,13.5964,6.75282,-1.75753
492.4,13.6705,6.72933,-1.82092
494.7,13.7443,6.60905,-1.8914
497,13.8175,6.39045,-1.95758
499.3,13.8907,6.08582,-2.02564
501.6,13.9634,5.68414,-2.09004
503.9,14.0356,5.20578,-2.14824
506.2,14.1075,4.66394,-2.20352
508.5,14.1794,4.07236,-2.24762
510.8,14.2511,3.52253,-2.28365
513.1,14.3239,3.08237,-2.3126
515.4,14.3966,2.78218,-2.3299
517.7,14.4696,2.56604,-2.34162
520,14.5433,2.40399,-2.34888
522.3,14.6168,2.27676,-2.35347
524.6,14.6909,2.18449,-2.35701
526.9,14.7649,2.12181,-2.35975
529.2,14.8393,2.0791,-2.3608
531.5,14.9134,2.05233,-2.36089
533.8,14.9879,2.03872,-2.36322
536.1,15.0627,2.01822,-2.36526
538.4,15.1369,2.00442,-2.36594
540.7,15.2118,1.9994,-2.3656
543,15.2866,1.99068,-2.36594
545.3,15.3612,1.98929,-2.36602
547.6,15.4363,1.98936,-2.3672
549.9,15.511,1.98674,-2.3686
552.2,15.5859,2.00492,-2.36944
554.5,15.661,2.02167,-2.36857
556.8,15.7361,2.04692,-2.36857
559.1,15.8115,2.07422,-2.36989
561.4,15.8862,2.1047,-2.37045
563.7,15.9617,2.11152,-2.37263
566,16.0371,2.12818,-2.37384
568.3,16.1124,2.11971,-2.37385
570.6,16.1875,2.10209,-2.37252
572.9,16.2631,2.08966,-2.37252
575.2,16.3384,2.0719,-2.3737
577.5,16.414,2.04627,-2.3725
579.8,16.4898,2.01881,-2.37375
582.1,16.5652,1.99436,-2.37384
584.4,16.6406,1.958,-2.37229
586.7,16.7168,1.91611,-2.3711
589,16.7925,1.88957,-2.37098
591.3,16.8686,1.87078,-2.37374
593.6,16.9446,1.85568,-2.37503
595.9,17.0208,1.84137,-2.37623
598.2,17.0971,1.82765,-2.37795
600.5,17.173,1.81485,-2.3779
602.8,17.2495,1.80099,-2.37657
605.1,17.3258,1.78711,-2.37659
607.4,17.4021,1.76817,-2.3779
609.7,17.4783,1.75562,-2.37659
612,17.5548,1.74234,-2.37526
614.3,17.6316,1.73007,-2.37658
616.6,17.708,1.72487,-2.37791
618.9,17.7846,1.71116,-2.37891
621.2,17.8613,1.70043,-2.37889
623.5,17.9375,1.68666,-2.37856
625.8,18.0143,1.67105,-2.37755
628.1,18.091,1.65941,-2.37752
630.4,18.1677,1.6496,-2.38032
632.7,18.2446,1.63374,-2.38335
635,18.3209,1.61931,-2.38466
637.3,18.3978,1.6244,-2.38603
639.6,18.4741,1.62095,-2.38598
641.9,18.5509,1.62713,-2.38468
644.2,18.6279,1.61596,-2.38198
646.5,18.7046,1.62206,-2.38196
648.8,18.7815,1.60802,-2.38065
651.1,18.8583,1.60463,-2.37966
653.4,18.9352,1.6043,-2.38084
655.7,19.0121,1.60744,-2.37846
658,19.0883,1.59476,-2.37742
660.3,19.1657,1.59149,-2.37823
662.6,19.2424,1.59106,-2.37958
664.9,19.3194,1.5789,-2.38089
667.2,19.3962,1.57288,-2.3837
669.5,19.4726,1.55931,-2.38633
671.8,19.5499,1.55832,-2.38767
674.1,19.6268,1.54651,-2.38622
676.4,19.7039,1.53435,-2.38635
678.7,19.7808,1.5333,-2.38756
681,19.858,1.53701,-2.38812
683.3,19.935,1.53271,-2.39072
685.6,20.012,1.53807,-2.38954
687.9,20.0884,1.52409,-2.38956
690.2,20.1664,1.5239,-2.388
692.5,20.2435,1.5158,-2.3883
694.8,20.321,1.51081,-2.38673
697.1,20.3984,1.51021,-2.38669
699.4,20.4758,1.50365,-2.38404
701.7,20.5536,1.4942,-2.38405
704,20.6311,1.49848,-2.38405
706.3,20.7089,1.48477,-2.38677
708.6,20.7864,1.46877,-2.39191
710.9,20.8638,1.47379,-2.39412
713.2,20.9422,1.47827,-2.39262
715.5,21.0201,1.49159,-2.39252
717.8,21.0978,1.49279,-2.39095
720.1,21.176,1.5028,-2.38976
722.4,21.2539,1.50586,-2.38976
724.7,21.3318,1.50509,-2.39104
727,21.4098,1.49985,-2.38966
729.3,21.488,1.48146,-2.38994
731.6,21.5659,1.48174,-2.39108
733.9,21.6439,1.47308,-2.3914
736.2,21.7223,1.48438,-2.38969
738.5,21.8003,1.47919,-2.3909
740,21.8514,1.4795,-2.39229