Folder: fsri_materials_database/01_Data/Rayon_Bamboo_Pillowcase/FTIR/IS

File: Rayon_Bamboo_Pillowcase_IS_T_220909_R8.dpt
7497.03,0.03396
7473.89,0.01930
7450.74,0.02525
7427.6,0.02612
7404.45,0.02650
7381.31,0.02654
7358.16,0.03414
7335.02,0.02593
7311.87,0.02714
7288.73,0.02553
7265.58,0.01686
7242.44,0.02603
7219.29,0.02437
7196.15,0.02299
7173,0.02422
7149.86,0.02590
7126.71,0.02372
7103.57,0.02447
7080.42,0.02507
7057.28,0.02330
7034.13,0.02818
7010.99,0.02379
6987.84,0.02212
6964.7,0.02010
6941.55,0.02003
6918.41,0.02121
6895.26,0.02162
6872.12,0.02471
6848.97,0.02452
6825.83,0.01926
6802.68,0.02209
6779.54,0.01914
6756.39,0.02123
6733.25,0.02038
6710.1,0.02328
6686.96,0.02315
6663.82,0.02321
6640.67,0.02254
6617.53,0.02415
6594.38,0.02011
6571.24,0.02002
6548.09,0.02424
6524.95,0.02386
6501.8,0.02411
6478.66,0.02238
6455.51,0.02302
6432.37,0.02206
6409.22,0.02055
6386.08,0.02471
6362.93,0.02175
6339.79,0.02211
6316.64,0.02170
6293.5,0.02195
6270.35,0.02025
6247.21,0.02069
6224.06,0.01975
6200.92,0.02448
6177.77,0.02088
6154.63,0.02163
6131.48,0.02284
6108.34,0.02074
6085.19,0.02088
6062.05,0.02223
6038.9,0.02070
6015.76,0.02117
5992.61,0.02062
5969.47,0.02257
5946.32,0.01999
5923.18,0.02171
5900.03,0.01919
5876.89,0.02335
5853.74,0.01994
5830.6,0.02067
5807.45,0.02350
5784.31,0.02218
5761.16,0.01939
5738.02,0.02079
5714.87,0.02236
5691.73,0.01937
5668.58,0.02081
5645.44,0.02303
5622.29,0.02336
5599.15,0.02321
5576,0.02065
5552.86,0.02287
5529.71,0.02017
5506.57,0.02079
5483.42,0.02271
5460.28,0.02298
5437.13,0.02173
5413.99,0.02162
5390.84,0.02198
5367.7,0.02153
5344.55,0.02248
5321.41,0.02335
5298.26,0.02346
5275.12,0.02220
5251.97,0.02213
5228.83,0.02190
5205.68,0.02236
5182.54,0.02360
5159.39,0.02337
5136.25,0.02276
5113.1,0.02247
5089.96,0.02323
5066.81,0.02169
5043.67,0.02204
5020.52,0.02186
4997.38,0.02182
4974.23,0.02261
4951.09,0.02146
4927.94,0.02297
4904.8,0.02286
4881.65,0.02139
4858.51,0.02147
4835.36,0.02250
4812.22,0.02270
4789.07,0.02123
4765.93,0.02216
4742.78,0.02193
4719.64,0.02145
4696.49,0.02274
4673.35,0.02222
4650.2,0.02315
4627.06,0.02264
4603.92,0.02286
4580.77,0.02264
4557.63,0.02162
4534.48,0.02318
4511.34,0.02166
4488.19,0.02180
4465.05,0.02186
4441.9,0.02186
4418.76,0.02291
4395.61,0.02265
4372.47,0.02223
4349.32,0.02284
4326.18,0.02281
4303.03,0.02240
4279.89,0.02290
4256.74,0.02270
4233.6,0.02227
4210.45,0.02313
4187.31,0.02276
4164.16,0.02285
4141.02,0.02220
4117.87,0.02215
4094.73,0.02271
4071.58,0.02228
4048.44,0.02272
4025.29,0.02291
4002.15,0.02325
3979,0.02316
3955.86,0.02322
3932.71,0.02301
3909.57,0.02259
3886.42,0.02244
3863.28,0.02340
3840.13,0.02314
3816.99,0.02302
3793.84,0.02265
3770.7,0.02226
3747.55,0.02266
3724.41,0.02269
3701.26,0.02184
3678.12,0.02323
3654.97,0.02241
3631.83,0.02313
3608.68,0.02240
3585.54,0.02118
3562.39,0.02137
3539.25,0.02125
3516.1,0.02075
3492.96,0.02172
3469.81,0.02055
3446.67,0.02123
3423.52,0.02129
3400.38,0.02038
3377.23,0.01995
3354.09,0.02090
3330.94,0.02019
3307.8,0.01995
3284.65,0.02032
3261.51,0.02064
3238.36,0.02049
3215.22,0.02056
3192.07,0.02093
3168.93,0.02119
3145.78,0.02069
3122.64,0.02081
3099.49,0.02091
3076.35,0.02048
3053.2,0.02039
3030.06,0.02052
3006.91,0.02057
2983.77,0.01967
2960.62,0.01921
2937.48,0.01994
2914.33,0.02062
2891.19,0.02036
2868.04,0.02070
2844.9,0.02116
2821.75,0.02117
2798.61,0.02138
2775.46,0.02163
2752.32,0.02092
2729.17,0.02133
2706.03,0.02173
2682.88,0.02168
2659.74,0.02202
2636.59,0.02096
2613.45,0.02108
2590.3,0.02151
2567.16,0.02166
2544.02,0.02143
2520.87,0.02148
2497.73,0.02122
2474.58,0.02111
2451.44,0.02153
2428.29,0.02137
2405.15,0.02094
2382,0.02163
2358.86,0.02122
2335.71,0.02128
2312.57,0.02139
2289.42,0.02128
2266.28,0.02132
2243.13,0.02116
2219.99,0.02162
2196.84,0.02115
2173.7,0.02100
2150.55,0.02101
2127.41,0.02063
2104.26,0.02135
2081.12,0.02060
2057.97,0.02087
2034.83,0.02100
2011.68,0.02110
1988.54,0.02140
1965.39,0.02065
1942.25,0.02071
1919.1,0.02049
1895.96,0.02069
1872.81,0.02056
1849.67,0.02068
1826.52,0.02003
1803.38,0.01986
1780.23,0.01909
1757.09,0.01772
1733.94,0.02005
1710.8,0.02088
1687.65,0.01956
1664.51,0.01889
1641.36,0.01863
1618.22,0.01958
1595.07,0.01896
1571.93,0.01882
1548.78,0.01840
1525.64,0.01866
1502.49,0.01879
1479.35,0.01881
1456.2,0.01880
1433.06,0.01870
1409.91,0.01855
1386.77,0.01814
1363.62,0.01838
1340.48,0.01854
1317.33,0.01738
1294.19,0.01822
1271.04,0.01959
1247.9,0.02069
1224.75,0.01943
1201.61,0.01879
1178.46,0.01790
1155.32,0.01797
1132.17,0.01821
1109.03,0.01902
1085.88,0.01819
1062.74,0.02016
1039.59,0.01984
1016.45,0.01880
993.304,0.02074
970.159,0.02057
947.014,0.02036
923.869,0.01911
900.724,0.01879
877.579,0.01985
854.434,0.01905
831.289,0.01888
808.144,0.01964
784.999,0.01838
761.854,0.01874
738.709,0.01855
715.565,0.01817
692.42,0.01892
669.275,0.01624
646.13,0.01683
622.985,0.01627
599.84,0.01667