Folder: fsri_materials_database/01_Data/Concrete_Block/FTIR/IS

File: Concrete_Block_IS_T_221214_R4.dpt
7497.03,0.02787
7473.89,0.01862
7450.74,0.02214
7427.6,0.02995
7404.45,0.02201
7381.31,0.02818
7358.16,0.01653
7335.02,0.01982
7311.87,0.02251
7288.73,0.01827
7265.58,0.01990
7242.44,0.02356
7219.29,0.02417
7196.15,0.02118
7173,0.02980
7149.86,0.02602
7126.71,0.02816
7103.57,0.03069
7080.42,0.01318
7057.28,0.02376
7034.13,0.02477
7010.99,0.02286
6987.84,0.02220
6964.7,0.02015
6941.55,0.01542
6918.41,0.02451
6895.26,0.02082
6872.12,0.02490
6848.97,0.02876
6825.83,0.02450
6802.68,0.02532
6779.54,0.02489
6756.39,0.02096
6733.25,0.02361
6710.1,0.02324
6686.96,0.02436
6663.82,0.02163
6640.67,0.02063
6617.53,0.02140
6594.38,0.02226
6571.24,0.02161
6548.09,0.02896
6524.95,0.02298
6501.8,0.02038
6478.66,0.02381
6455.51,0.02259
6432.37,0.02497
6409.22,0.02209
6386.08,0.02062
6362.93,0.02382
6339.79,0.01990
6316.64,0.02156
6293.5,0.02546
6270.35,0.02355
6247.21,0.02173
6224.06,0.02444
6200.92,0.02513
6177.77,0.02075
6154.63,0.02565
6131.48,0.02423
6108.34,0.02404
6085.19,0.02419
6062.05,0.02572
6038.9,0.02305
6015.76,0.02193
5992.61,0.02306
5969.47,0.02354
5946.32,0.02121
5923.18,0.02501
5900.03,0.02221
5876.89,0.02371
5853.74,0.02122
5830.6,0.02201
5807.45,0.02060
5784.31,0.02573
5761.16,0.02249
5738.02,0.02484
5714.87,0.02157
5691.73,0.02281
5668.58,0.02289
5645.44,0.02395
5622.29,0.02416
5599.15,0.02154
5576,0.02308
5552.86,0.02374
5529.71,0.02297
5506.57,0.02137
5483.42,0.02195
5460.28,0.02226
5437.13,0.02469
5413.99,0.02379
5390.84,0.02250
5367.7,0.02397
5344.55,0.02238
5321.41,0.02591
5298.26,0.02415
5275.12,0.02253
5251.97,0.01992
5228.83,0.02332
5205.68,0.02350
5182.54,0.02408
5159.39,0.02228
5136.25,0.02218
5113.1,0.02314
5089.96,0.02381
5066.81,0.02355
5043.67,0.02360
5020.52,0.02351
4997.38,0.02367
4974.23,0.02275
4951.09,0.02289
4927.94,0.02277
4904.8,0.02287
4881.65,0.02347
4858.51,0.02355
4835.36,0.02301
4812.22,0.02406
4789.07,0.02362
4765.93,0.02298
4742.78,0.02321
4719.64,0.02341
4696.49,0.02345
4673.35,0.02405
4650.2,0.02367
4627.06,0.02338
4603.92,0.02320
4580.77,0.02267
4557.63,0.02291
4534.48,0.02259
4511.34,0.02445
4488.19,0.02299
4465.05,0.02379
4441.9,0.02414
4418.76,0.02267
4395.61,0.02322
4372.47,0.02392
4349.32,0.02371
4326.18,0.02315
4303.03,0.02343
4279.89,0.02305
4256.74,0.02365
4233.6,0.02351
4210.45,0.02410
4187.31,0.02318
4164.16,0.02366
4141.02,0.02416
4117.87,0.02444
4094.73,0.02352
4071.58,0.02407
4048.44,0.02398
4025.29,0.02417
4002.15,0.02365
3979,0.02355
3955.86,0.02411
3932.71,0.02390
3909.57,0.02418
3886.42,0.02368
3863.28,0.02370
3840.13,0.02400
3816.99,0.02431
3793.84,0.02416
3770.7,0.02336
3747.55,0.02402
3724.41,0.02376
3701.26,0.02386
3678.12,0.02392
3654.97,0.02405
3631.83,0.02330
3608.68,0.02359
3585.54,0.02306
3562.39,0.02258
3539.25,0.02247
3516.1,0.02186
3492.96,0.02229
3469.81,0.02242
3446.67,0.02199
3423.52,0.02233
3400.38,0.02113
3377.23,0.02142
3354.09,0.02088
3330.94,0.02119
3307.8,0.02149
3284.65,0.02180
3261.51,0.02179
3238.36,0.02218
3215.22,0.02183
3192.07,0.02192
3168.93,0.02221
3145.78,0.02216
3122.64,0.02266
3099.49,0.02243
3076.35,0.02222
3053.2,0.02186
3030.06,0.02170
3006.91,0.02237
2983.77,0.02124
2960.62,0.02085
2937.48,0.02068
2914.33,0.02172
2891.19,0.02235
2868.04,0.02166
2844.9,0.02224
2821.75,0.02260
2798.61,0.02306
2775.46,0.02270
2752.32,0.02303
2729.17,0.02310
2706.03,0.02290
2682.88,0.02285
2659.74,0.02288
2636.59,0.02326
2613.45,0.02316
2590.3,0.02286
2567.16,0.02270
2544.02,0.02312
2520.87,0.02271
2497.73,0.02317
2474.58,0.02260
2451.44,0.02268
2428.29,0.02299
2405.15,0.02297
2382,0.02256
2358.86,0.02295
2335.71,0.02331
2312.57,0.02328
2289.42,0.02319
2266.28,0.02237
2243.13,0.02284
2219.99,0.02272
2196.84,0.02306
2173.7,0.02280
2150.55,0.02308
2127.41,0.02273
2104.26,0.02269
2081.12,0.02259
2057.97,0.02239
2034.83,0.02282
2011.68,0.02257
1988.54,0.02276
1965.39,0.02271
1942.25,0.02284
1919.1,0.02256
1895.96,0.02227
1872.81,0.02258
1849.67,0.02205
1826.52,0.02181
1803.38,0.02157
1780.23,0.02114
1757.09,0.01930
1733.94,0.02129
1710.8,0.02234
1687.65,0.02072
1664.51,0.02019
1641.36,0.02043
1618.22,0.02072
1595.07,0.02054
1571.93,0.02032
1548.78,0.02048
1525.64,0.02046
1502.49,0.01991
1479.35,0.02022
1456.2,0.02008
1433.06,0.02007
1409.91,0.01995
1386.77,0.01970
1363.62,0.01965
1340.48,0.01946
1317.33,0.01849
1294.19,0.01900
1271.04,0.02079
1247.9,0.02178
1224.75,0.02089
1201.61,0.02023
1178.46,0.01954
1155.32,0.01917
1132.17,0.01955
1109.03,0.02026
1085.88,0.01929
1062.74,0.02183
1039.59,0.02137
1016.45,0.02023
993.304,0.02307
970.159,0.02225
947.014,0.02170
923.869,0.02190
900.724,0.02140
877.579,0.02134
854.434,0.02104
831.289,0.02129
808.144,0.02075
784.999,0.01967
761.854,0.02029
738.709,0.02036
715.565,0.01993
692.42,0.02002
669.275,0.01910
646.13,0.01842
622.985,0.01695
599.84,0.01738