Folder: fsri_materials_database/01_Data/Helmet_Shield/STA/N2/10K_min (part 2)

File: Helmet_Shield_STA_N2_10KData_240225_R3.csv
Temp./C,Time/min,DSC/(mW/mg),Mass loss/mg
60.0,0.0,0.939832,-0.00881593
62.3,0.259988,1.004,-0.00933964
64.6,0.512177,1.03397,-0.00837163
66.9,0.759262,1.06659,-0.0092327
69.2,1.00295,1.07854,-0.00974041
71.5,1.24731,1.10995,-0.00922076
73.8,1.48689,1.12888,-0.00931697
76.1,1.72518,1.15217,-0.0118444
78.4,1.96506,1.16228,-0.0105628
80.7,2.20132,1.1777,-0.0105373
83,2.43616,1.1896,-0.0105499
85.3,2.66955,1.20865,-0.0118269
87.6,2.90255,1.21416,-0.0131782
89.9,3.13253,1.22327,-0.0117784
92.2,3.35745,1.22513,-0.0125449
94.5,3.58735,1.23377,-0.0144918
96.8,3.81736,1.24099,-0.01318
99.1,4.04257,1.25015,-0.0131792
101.4,4.26786,1.25961,-0.0118604
103.7,4.4935,1.26542,-0.0134563
106,4.72686,1.27208,-0.013838
108.3,4.95173,1.28281,-0.0138397
110.6,5.17697,1.29392,-0.0138291
112.9,5.399,1.30504,-0.0148146
115.2,5.62112,1.3126,-0.0127612
117.5,5.8473,1.32195,-0.0138389
119.8,6.07125,1.32941,-0.0151545
122.1,6.29413,1.32722,-0.0164102
124.4,6.51601,1.33429,-0.0150568
126.7,6.73904,1.34622,-0.0138403
129,6.96068,1.34656,-0.013838
131.3,7.18161,1.35643,-0.0151599
133.6,7.40386,1.35965,-0.0151056
135.9,7.62461,1.37133,-0.0138337
138.2,7.8451,1.36921,-0.015147
140.5,8.0669,1.37873,-0.01615
142.8,8.28727,1.38309,-0.0164559
145.1,8.51019,1.3944,-0.0151331
147.4,8.72819,1.39038,-0.0151591
149.7,8.94826,1.40403,-0.01647
152,9.16813,1.40927,-0.0151114
154.3,9.38971,1.41058,-0.0161401
156.6,9.60849,1.42132,-0.0174664
158.9,9.82795,1.4231,-0.0168562
161.2,10.0482,1.42656,-0.0187778
163.5,10.2674,1.44352,-0.0204873
165.8,10.487,1.4452,-0.0201
168.1,10.7076,1.45794,-0.0174819
170.4,10.9265,1.464,-0.01878
172.7,11.145,1.47948,-0.0201001
175,11.3642,1.48292,-0.0207554
177.3,11.5829,1.49843,-0.0201268
179.6,11.7998,1.51224,-0.0200974
181.9,12.0196,1.50657,-0.0220795
184.2,12.2391,1.51521,-0.0233894
186.5,12.4556,1.51941,-0.02437
188.8,12.6757,1.52389,-0.02569
191.1,12.893,1.53418,-0.0260114
193.4,13.1112,1.5334,-0.02866
195.7,13.3298,1.54217,-0.028
198,13.5485,1.55409,-0.02833
200.3,13.7646,1.55445,-0.0309699
202.6,13.9843,1.55936,-0.0326194
204.9,14.2037,1.56265,-0.0336086
207.2,14.4219,1.56093,-0.0379294
209.5,14.6396,1.57228,-0.03854
211.8,14.8581,1.56957,-0.04117
214.1,15.0769,1.57614,-0.0447855
216.4,15.2954,1.57429,-0.0474294
218.7,15.5145,1.58222,-0.0506668
221,15.7324,1.58416,-0.0536915
223.3,15.9509,1.58945,-0.0583104
225.6,16.1693,1.58449,-0.0619394
227.9,16.3859,1.5947,-0.0675931
230.2,16.6055,1.59824,-0.0734482
232.5,16.8233,1.60741,-0.0772849
234.8,17.0442,1.62105,-0.0838944
237.1,17.2596,1.63215,-0.0925414
239.4,17.4808,1.64636,-0.101213
241.7,17.6995,1.6731,-0.111967
244,17.92,1.70506,-0.119677
246.3,18.1377,1.73791,-0.131707
248.6,18.3566,1.77073,-0.143908
250.9,18.5775,1.82681,-0.158093
253.2,18.7973,1.86911,-0.173186
255.5,19.0161,1.89,-0.192342
257.8,19.2353,1.95683,-0.212746
260.1,19.4556,2.02889,-0.234347
262.4,19.6769,2.12867,-0.261053
264.7,19.8967,2.26208,-0.289445
267,20.1153,2.38491,-0.320998
269.3,20.338,2.53821,-0.362019
271.6,20.5595,2.70405,-0.402661
273.9,20.7806,2.88343,-0.45303
276.2,21.003,3.05946,-0.509828
278.5,21.2244,3.23047,-0.572881
280.8,21.4473,3.36131,-0.644276
283.1,21.6684,3.48262,-0.718119
285.4,21.8896,3.58833,-0.802329
287.7,22.1104,3.66846,-0.890818
290,22.3304,3.72099,-0.98391
292.3,22.5516,3.73851,-1.08107
294.6,22.7714,3.72261,-1.18001
296.9,22.9912,3.65586,-1.28126
299.2,23.2095,3.5216,-1.38261
301.5,23.4258,3.34246,-1.47785
303.8,23.6437,3.08869,-1.57236
306.1,23.859,2.78682,-1.65629
308.4,24.0753,2.46764,-1.73149
310.7,24.291,2.13133,-1.79675
313,24.5071,1.8594,-1.84914
315.3,24.7239,1.64519,-1.8953
317.6,24.942,1.50195,-1.93146
319.9,25.1603,1.38188,-1.96894
322.2,25.3799,1.28973,-2.00201
324.5,25.5982,1.20774,-2.03204
326.8,25.8179,1.1369,-2.05943
329.1,26.0376,1.07796,-2.08497
331.4,26.2565,0.992289,-2.10811
333.7,26.4764,0.920331,-2.13026
336,26.6966,0.850293,-2.15019
338.3,26.9166,0.777622,-2.17131
340.6,27.1354,0.704091,-2.18631
342.9,27.3566,0.648054,-2.20301
345.2,27.5766,0.573716,-2.22071
347.5,27.7972,0.509629,-2.23286
349.8,28.0192,0.4551,-2.24726
352.1,28.2391,0.408335,-2.25706
354.4,28.4614,0.366527,-2.26954
356.7,28.6829,0.334632,-2.2789
359,28.9044,0.298093,-2.2903
361.3,29.1257,0.273219,-2.29961
363.6,29.346,0.255426,-2.30761
365.9,29.5679,0.242222,-2.31657
368.2,29.7908,0.240732,-2.32617
370.5,30.0126,0.239509,-2.33475
372.8,30.2353,0.2438,-2.3436
375.1,30.4573,0.258815,-2.35433
377.4,30.6807,0.26409,-2.36267
379.7,30.9022,0.280965,-2.37387
382,31.1253,0.294614,-2.38552
384.3,31.3482,0.305966,-2.39675
386.6,31.5715,0.327347,-2.40963
388.9,31.7943,0.336128,-2.42232
391.2,32.0177,0.350907,-2.43831
393.5,32.2417,0.35883,-2.45375
395.8,32.4662,0.356118,-2.46809
398.1,32.6902,0.363888,-2.48568
400.4,32.9141,0.367839,-2.50076
402.7,33.1391,0.36997,-2.51682
405,33.3632,0.364288,-2.53621
407.3,33.5865,0.360962,-2.55632
409.6,33.8106,0.348596,-2.57554
411.9,34.035,0.339037,-2.59354
414.2,34.259,0.325931,-2.6134
416.5,34.483,0.307673,-2.63382
418.8,34.7069,0.295211,-2.65222
421.1,34.9314,0.271174,-2.67293
423.4,35.1553,0.261509,-2.69237
425.7,35.3799,0.262559,-2.71221
428,35.6036,0.24558,-2.73244
430.3,35.8294,0.240684,-2.75157
432.6,36.0544,0.240769,-2.77135
434.9,36.2777,0.247059,-2.79477
437.2,36.5045,0.259192,-2.81516
439.5,36.7291,0.27765,-2.83705
441.8,36.954,0.297048,-2.85881
444.1,37.1789,0.324134,-2.8815
446.4,37.4059,0.34956,-2.90294
448.7,37.6315,0.358331,-2.92424
451,37.8566,0.388609,-2.94746
453.3,38.0824,0.388375,-2.96629
455.6,38.3082,0.394947,-2.98693
457.9,38.5347,0.395544,-3.00742
460.2,38.7606,0.395084,-3.02698
462.5,38.9867,0.393134,-3.0449
464.8,39.2129,0.383031,-3.06119
467.1,39.439,0.364004,-3.07605
469.4,39.6651,0.353921,-3.09076
471.7,39.8902,0.341362,-3.10282
474,40.1171,0.330677,-3.11492
476.3,40.3424,0.318643,-3.12672
478.6,40.5695,0.303167,-3.13395
480.9,40.7959,0.294059,-3.14488
483.2,41.022,0.293178,-3.15148
485.5,41.2485,0.281194,-3.15746
487.8,41.4748,0.273291,-3.16372
490.1,41.7012,0.268852,-3.17038
492.4,41.9275,0.254907,-3.17449
494.7,42.1527,0.269562,-3.17799
497,42.3805,0.253256,-3.18173
499.3,42.6077,0.247282,-3.18594
501.6,42.833,0.245836,-3.19043
503.9,43.0621,0.237326,-3.19491
506.2,43.2889,0.243379,-3.19622
508.5,43.5158,0.235363,-3.20051
510.8,43.7428,0.236016,-3.20184
513.1,43.9718,0.238065,-3.20447
515.4,44.1986,0.237739,-3.20842
517.7,44.4256,0.233381,-3.2098
520,44.6535,0.236256,-3.2127
522.3,44.8807,0.239249,-3.21401
524.6,45.1087,0.238312,-3.21796
526.9,45.3355,0.240049,-3.21959
529.2,45.5637,0.243541,-3.2206
531.5,45.7907,0.245618,-3.22331
533.8,46.0184,0.251718,-3.22587
536.1,46.2468,0.254909,-3.2285
538.4,46.4755,0.267216,-3.23099
540.7,46.704,0.2673,-3.23147
543,46.9319,0.269025,-3.23377
545.3,47.1604,0.267936,-3.23377
547.6,47.3884,0.274603,-3.2364
549.9,47.616,0.267617,-3.23772
552.2,47.844,0.268999,-3.23904
554.5,48.0715,0.271507,-3.23905
556.8,48.2992,0.273517,-3.24168
559.1,48.5266,0.277951,-3.243
561.4,48.7562,0.286348,-3.24434
563.7,48.9837,0.285362,-3.24695
566,49.2133,0.286075,-3.24629
568.3,49.4404,0.278977,-3.24827
570.6,49.6698,0.275556,-3.24958
572.9,49.8978,0.274572,-3.24959
575.2,50.1267,0.274245,-3.25272
577.5,50.3548,0.267447,-3.25453
579.8,50.5816,0.27367,-3.25452
582.1,50.8122,0.266877,-3.25722
584.4,51.0422,0.262625,-3.25639
586.7,51.27,0.266246,-3.25781
589,51.4993,0.273851,-3.26012
591.3,51.728,0.278982,-3.26143
593.6,51.9576,0.279718,-3.26135
595.9,52.1875,0.279753,-3.26276
598.2,52.4165,0.280809,-3.26408
600.5,52.645,0.284612,-3.26439
602.8,52.8743,0.287779,-3.26539
605.1,53.104,0.280079,-3.26803
607.4,53.3321,0.278031,-3.26934
609.7,53.5611,0.283787,-3.26945
612,53.791,0.287414,-3.27066
614.3,54.0211,0.280629,-3.27328
616.6,54.2515,0.267576,-3.27461
618.9,54.4811,0.256705,-3.27519
621.2,54.7109,0.251167,-3.27592
623.5,54.9417,0.249211,-3.27889
625.8,55.1707,0.243085,-3.27909
628.1,55.3996,0.229184,-3.27988
630.4,55.6309,0.218903,-3.27988
632.7,55.8606,0.204276,-3.28054
635,56.091,0.193973,-3.28133
637.3,56.3217,0.192313,-3.28581
639.6,56.5513,0.183828,-3.28449
641.9,56.782,0.185098,-3.28714
644.2,57.0131,0.171178,-3.28776
646.5,57.2437,0.164728,-3.28846
648.8,57.4724,0.163761,-3.28976
651.1,57.703,0.156814,-3.29108
653.4,57.9348,0.146755,-3.29072
655.7,58.1657,0.146272,-3.29373
658,58.397,0.139198,-3.29507
660.3,58.6271,0.131478,-3.29569
662.6,58.8584,0.127002,-3.29569
664.9,59.0893,0.126903,-3.29865
667.2,59.3218,0.127499,-3.29734
669.5,59.5527,0.121644,-3.29733
671.8,59.7844,0.114958,-3.30008
674.1,60.0162,0.116187,-3.3014
676.4,60.2469,0.108846,-3.30271
678.7,60.4789,0.103136,-3.30272
681,60.7109,0.104651,-3.30311
683.3,60.9433,0.105196,-3.30403
685.6,61.1737,0.101859,-3.30524
687.9,61.4064,0.0968906,-3.30667
690.2,61.6387,0.0939739,-3.30881
692.5,61.8699,0.0905012,-3.30936
694.8,62.1015,0.0820281,-3.3093
697.1,62.3345,0.0744496,-3.31128
699.4,62.5665,0.0821396,-3.31307
701.7,62.799,0.0751185,-3.31326
704,63.0313,0.0691931,-3.31442
706.3,63.2645,0.0651539,-3.3149
708.6,63.496,0.0595684,-3.31758
710.9,63.7296,0.0528459,-3.31886
713.2,63.9612,0.034848,-3.31958
715.5,64.1952,0.0304255,-3.3182
717.8,64.4276,0.0132583,-3.32151
720.1,64.66,0.0124801,-3.32225
722.4,64.8918,0.0174014,-3.32411
724.7,65.1246,0.0140768,-3.32407
727,65.3576,0.00108636,-3.32545
729.3,65.5916,-0.00381691,-3.32689
731.6,65.8236,-0.012841,-3.32941
733.9,66.0568,-0.0144705,-3.33005
736.2,66.2887,-0.0266824,-3.32939
738.5,66.5217,-0.0269409,-3.33135
740,66.6739,-0.0356494,-3.33302