Folder: fsri_materials_database/01_Data/Helmet_Shield/STA/N2/10K_min

File: Helmet_Shield_STA_N2_10KData_240223_R1.csv
Temp./C,Time/min,DSC/(mW/mg),Mass loss/mg
60.0,0.0,0.848116,-0.0221799
62.3,0.2606,0.902047,-0.0222872
64.6,0.514143,0.942585,-0.0223087
66.9,0.764087,0.972528,-0.0221604
69.2,1.00805,1.00096,-0.0234889
71.5,1.25072,1.01469,-0.0248033
73.8,1.49277,1.04532,-0.0248621
76.1,1.73001,1.06462,-0.0254716
78.4,1.97131,1.0778,-0.0247961
80.7,2.20787,1.09142,-0.0261719
83,2.44212,1.09883,-0.0274402
85.3,2.67525,1.09984,-0.0287933
87.6,2.90696,1.10907,-0.0280572
89.9,3.13775,1.10564,-0.0279939
92.2,3.36604,1.10443,-0.0294242
94.5,3.59556,1.11411,-0.0286378
96.8,3.82206,1.1117,-0.0283792
99.1,4.05011,1.11792,-0.0294193
101.4,4.2754,1.11809,-0.0280876
103.7,4.501,1.13278,-0.0294199
106,4.72461,1.13262,-0.0294181
108.3,4.94915,1.1373,-0.02942
110.6,5.17216,1.14236,-0.0291299
112.9,5.39593,1.1564,-0.02943
115.2,5.61907,1.16106,-0.0301065
117.5,5.84487,1.16998,-0.0300804
119.8,6.06819,1.17594,-0.02909
122.1,6.29014,1.18327,-0.0287579
124.4,6.51347,1.19072,-0.0287538
126.7,6.73706,1.18357,-0.03008
129,6.95861,1.19598,-0.02975
131.3,7.18095,1.19865,-0.0300801
133.6,7.40048,1.20388,-0.0314524
135.9,7.62405,1.21334,-0.0300801
138.2,7.84447,1.21439,-0.0290892
140.5,8.0656,1.22084,-0.03041
142.8,8.28642,1.2161,-0.0317316
145.1,8.50647,1.21417,-0.0316323
147.4,8.72556,1.2167,-0.0327194
149.7,8.94492,1.22073,-0.03272
152,9.16433,1.23237,-0.0317306
154.3,9.38508,1.22886,-0.03304
156.6,9.60454,1.24361,-0.0344152
158.9,9.82317,1.24397,-0.0330459
161.2,10.0442,1.24744,-0.03436
163.5,10.2641,1.26187,-0.0343709
165.8,10.4821,1.27178,-0.03437
168.1,10.7017,1.27775,-0.0353393
170.4,10.9213,1.2929,-0.03568
172.7,11.1406,1.30372,-0.03568
175,11.3601,1.31441,-0.0357004
177.3,11.5798,1.32479,-0.0370784
179.6,11.7982,1.32967,-0.0370519
181.9,12.0171,1.34674,-0.03733
184.2,12.2357,1.35363,-0.0383212
186.5,12.4537,1.35835,-0.03964
188.8,12.6728,1.35775,-0.0398287
191.1,12.892,1.37266,-0.04094
193.4,13.1097,1.36927,-0.0411935
195.7,13.329,1.37011,-0.04325
198,13.546,1.37842,-0.0442398
200.3,13.7655,1.38337,-0.0458901
202.6,13.9846,1.38847,-0.0481563
204.9,14.2033,1.39692,-0.0502047
207.2,14.4205,1.40567,-0.0538501
209.5,14.6395,1.41781,-0.0551043
211.8,14.8578,1.41212,-0.0577402
214.1,15.0765,1.41492,-0.0600226
216.4,15.2948,1.42811,-0.0620202
218.7,15.513,1.42374,-0.0653175
221,15.7316,1.41633,-0.0697936
223.3,15.9506,1.41122,-0.0728997
225.6,16.1683,1.41466,-0.0778447
227.9,16.387,1.42296,-0.0807999
230.2,16.6058,1.42208,-0.0873857
232.5,16.823,1.42609,-0.0927536
234.8,17.0409,1.44475,-0.0984933
237.1,17.2587,1.46721,-0.106963
239.4,17.4771,1.4834,-0.115081
241.7,17.6953,1.50396,-0.123798
244,17.9145,1.53323,-0.134027
246.3,18.1336,1.55674,-0.146336
248.6,18.3544,1.59963,-0.160283
250.9,18.5735,1.64322,-0.173313
253.2,18.7934,1.68684,-0.189912
255.5,19.0125,1.72581,-0.20687
257.8,19.2321,1.78367,-0.22651
260.1,19.4516,1.86032,-0.251273
262.4,19.6741,1.96187,-0.274381
264.7,19.8951,2.0805,-0.304127
267,20.1163,2.21408,-0.33687
269.3,20.3368,2.37424,-0.375993
271.6,20.5604,2.549,-0.419904
273.9,20.7822,2.72571,-0.470569
276.2,21.004,2.8997,-0.526216
278.5,21.226,3.05639,-0.590486
280.8,21.447,3.18443,-0.657635
283.1,21.6689,3.30993,-0.735991
285.4,21.8905,3.40874,-0.818683
287.7,22.1107,3.48605,-0.906685
290,22.3325,3.53199,-1.00114
292.3,22.5517,3.55269,-1.09556
294.6,22.7725,3.52891,-1.19543
296.9,22.9912,3.45305,-1.29608
299.2,23.2102,3.33167,-1.39582
301.5,23.4277,3.14222,-1.49033
303.8,23.6437,2.89963,-1.5813
306.1,23.8594,2.59678,-1.66532
308.4,24.0754,2.28082,-1.73824
310.7,24.2901,1.96469,-1.80369
313,24.5048,1.69891,-1.85728
315.3,24.7218,1.49957,-1.90119
317.6,24.94,1.36605,-1.94097
319.9,25.1581,1.25763,-1.97791
322.2,25.3768,1.16513,-2.00889
324.5,25.5952,1.08699,-2.03773
326.8,25.8155,1.0211,-2.06448
329.1,26.0357,0.949069,-2.08991
331.4,26.2543,0.872154,-2.11231
333.7,26.4755,0.80014,-2.13339
336,26.6945,0.72401,-2.15456
338.3,26.9161,0.647259,-2.17351
340.6,27.1365,0.582829,-2.18949
342.9,27.3565,0.519849,-2.20572
345.2,27.5778,0.447571,-2.22006
347.5,27.7997,0.385205,-2.2341
349.8,28.0189,0.327142,-2.24787
352.1,28.24,0.278663,-2.25818
354.4,28.4618,0.230982,-2.2704
356.7,28.6828,0.188419,-2.28197
359,28.9042,0.154882,-2.29038
361.3,29.1263,0.12211,-2.30015
363.6,29.3482,0.106941,-2.30939
365.9,29.572,0.0848096,-2.3192
368.2,29.7935,0.0804812,-2.32699
370.5,30.0159,0.0821477,-2.33596
372.8,30.2395,0.0919034,-2.34454
375.1,30.4613,0.101203,-2.35525
377.4,30.6831,0.101313,-2.36516
379.7,30.9054,0.109326,-2.3736
382,31.1301,0.117041,-2.38517
384.3,31.353,0.128652,-2.39784
386.6,31.5768,0.140683,-2.4103
388.9,31.7995,0.150052,-2.42308
391.2,32.0223,0.165366,-2.43735
393.5,32.2462,0.182664,-2.4525
395.8,32.4699,0.17939,-2.46663
398.1,32.694,0.186902,-2.48302
400.4,32.9191,0.200311,-2.4986
402.7,33.1428,0.193026,-2.51598
405,33.3662,0.19563,-2.53298
407.3,33.5912,0.183171,-2.5507
409.6,33.8146,0.159252,-2.56997
411.9,34.0371,0.142141,-2.59213
414.2,34.2629,0.131908,-2.60993
416.5,34.4847,0.124491,-2.62801
418.8,34.7112,0.105528,-2.64616
421.1,34.9356,0.0888621,-2.66522
423.4,35.1601,0.0761256,-2.68352
425.7,35.3841,0.0751175,-2.70313
428,35.6095,0.0723015,-2.72248
430.3,35.8322,0.0682592,-2.74131
432.6,36.057,0.0784411,-2.76049
434.9,36.2829,0.0849619,-2.78138
437.2,36.5071,0.0977951,-2.80123
439.5,36.7345,0.120768,-2.82384
441.8,36.9597,0.128407,-2.8456
444.1,37.185,0.147466,-2.86666
446.4,37.4115,0.162998,-2.88952
448.7,37.6375,0.183439,-2.91096
451,37.8636,0.191404,-2.93246
453.3,38.0893,0.192748,-2.95352
455.6,38.3154,0.189511,-2.97312
457.9,38.5413,0.188117,-2.99345
460.2,38.766,0.175949,-3.01246
462.5,38.9937,0.158199,-3.02867
464.8,39.2176,0.149467,-3.04498
467.1,39.4453,0.139797,-3.06127
469.4,39.6716,0.119618,-3.07552
471.7,39.897,0.103192,-3.08622
474,40.1219,0.0805166,-3.09893
476.3,40.3473,0.0666452,-3.11061
478.6,40.5739,0.055687,-3.11856
480.9,40.7997,0.0444481,-3.1286
483.2,41.025,0.0284354,-3.13517
485.5,41.2517,0.016645,-3.14082
487.8,41.4774,0.0105106,-3.14672
490.1,41.7035,-0.000150869,-3.15199
492.4,41.9323,-0.00836749,-3.15681
494.7,42.1598,-0.00975474,-3.16204
497,42.3856,-0.0163421,-3.16547
499.3,42.6139,-0.0257225,-3.16943
501.6,42.8397,-0.0361945,-3.17207
503.9,43.0689,-0.0413181,-3.17608
506.2,43.296,-0.0445571,-3.17791
508.5,43.5225,-0.0521583,-3.18139
510.8,43.7503,-0.0608306,-3.18392
513.1,43.9785,-0.0643171,-3.18578
515.4,44.2053,-0.0614536,-3.18787
517.7,44.433,-0.0667379,-3.19181
520,44.6603,-0.0653259,-3.19279
522.3,44.8894,-0.0754443,-3.19447
524.6,45.1134,-0.0701372,-3.1971
526.9,45.3437,-0.0525246,-3.19974
529.2,45.5723,-0.0550363,-3.20171
531.5,45.7995,-0.0552877,-3.20303
533.8,46.0272,-0.0577514,-3.20566
536.1,46.255,-0.046248,-3.20764
538.4,46.4816,-0.0446662,-3.20764
540.7,46.7088,-0.0514024,-3.20898
543,46.936,-0.0533916,-3.21027
545.3,47.1647,-0.0557949,-3.21236
547.6,47.3926,-0.0545352,-3.2129
549.9,47.6204,-0.067168,-3.21422
552.2,47.8478,-0.070272,-3.21686
554.5,48.0767,-0.0711103,-3.21686
556.8,48.3031,-0.0766376,-3.21819
559.1,48.5335,-0.0737278,-3.21818
561.4,48.7603,-0.0766052,-3.22013
563.7,48.9891,-0.086164,-3.22213
566,49.2185,-0.0908095,-3.22246
568.3,49.4471,-0.0899526,-3.22509
570.6,49.6761,-0.0962027,-3.2251
572.9,49.9046,-0.0986739,-3.22543
575.2,50.1321,-0.101835,-3.22674
577.5,50.3618,-0.116866,-3.22806
579.8,50.5899,-0.112089,-3.22871
582.1,50.819,-0.107755,-3.22871
584.4,51.0472,-0.108093,-3.22937
586.7,51.2765,-0.096335,-3.23201
589,51.5063,-0.0962289,-3.23233
591.3,51.7358,-0.0958653,-3.23168
593.6,51.9656,-0.0905034,-3.23574
595.9,52.1959,-0.0850093,-3.23706
598.2,52.4256,-0.0799369,-3.23705
600.5,52.6539,-0.0704919,-3.23706
602.8,52.8857,-0.0655205,-3.2397
605.1,53.117,-0.0690384,-3.23969
607.4,53.3469,-0.0556867,-3.242
609.7,53.5769,-0.061725,-3.242
612,53.8075,-0.059631,-3.24332
614.3,54.0383,-0.058661,-3.24397
616.6,54.2683,-0.0632993,-3.24666
618.9,54.4993,-0.0726617,-3.24793
621.2,54.7299,-0.0688088,-3.24858
623.5,54.9603,-0.0798258,-3.25056
625.8,55.191,-0.0876323,-3.24994
628.1,55.4208,-0.0858936,-3.25185
630.4,55.6519,-0.102233,-3.25396
632.7,55.8817,-0.108052,-3.25352
635,56.1136,-0.110412,-3.25387
637.3,56.3436,-0.118009,-3.25518
639.6,56.5722,-0.115763,-3.25751
641.9,56.8046,-0.121673,-3.2588
644.2,57.0336,-0.122233,-3.25979
646.5,57.2638,-0.123833,-3.26143
648.8,57.4949,-0.121807,-3.26209
651.1,57.7265,-0.110643,-3.26341
653.4,57.9572,-0.0961205,-3.26503
655.7,58.1887,-0.0928231,-3.26583
658,58.4213,-0.0918269,-3.26811
660.3,58.6522,-0.086208,-3.26801
662.6,58.8831,-0.0883043,-3.27131
664.9,59.1121,-0.0776455,-3.27207
667.2,59.3459,-0.0855158,-3.27347
669.5,59.577,-0.0755514,-3.27603
671.8,59.8084,-0.0789006,-3.27569
674.1,60.0406,-0.0870453,-3.27702
676.4,60.2725,-0.0887668,-3.27691
678.7,60.5038,-0.0871025,-3.27966
681,60.736,-0.0816073,-3.28163
683.3,60.9675,-0.0873862,-3.28192
685.6,61.2003,-0.0724325,-3.28328
687.9,61.4319,-0.0715717,-3.28328
690.2,61.6625,-0.0676566,-3.28462
692.5,61.896,-0.0671421,-3.28624
694.8,62.1276,-0.064099,-3.28756
697.1,62.3606,-0.0594429,-3.29019
699.4,62.5925,-0.0555967,-3.29019
701.7,62.8251,-0.044959,-3.29151
704,63.0569,-0.0473029,-3.29283
706.3,63.2892,-0.0574028,-3.29411
708.6,63.5221,-0.0477285,-3.29683
710.9,63.7547,-0.0364136,-3.29721
713.2,63.9862,-0.0349496,-3.2981
715.5,64.2208,-0.0429768,-3.29942
717.8,64.4542,-0.0495347,-3.30073
720.1,64.6871,-0.0496109,-3.30073
722.4,64.9195,-0.0522087,-3.30337
724.7,65.1533,-0.0572686,-3.30336
727,65.3843,-0.0619841,-3.30502
729.3,65.6195,-0.0608039,-3.30765
731.6,65.8523,-0.0755042,-3.30732
733.9,66.0849,-0.0852609,-3.30765
736.2,66.3177,-0.0889519,-3.30925
738.5,66.5508,-0.113436,-3.31061
740,66.7023,-0.114945,-3.30924

File: Helmet_Shield_STA_N2_10KData_240225_R2.csv
Temp./C,Time/min,DSC/(mW/mg),Mass loss/mg
60.0,0.0,0.778244,0.0273095
62.3,0.259741,0.825596,0.0287704
64.6,0.512906,0.85352,0.0287586
66.9,0.760203,0.874557,0.028365
69.2,1.00396,0.883928,0.0300809
71.5,1.25055,0.906867,0.0285428
73.8,1.49144,0.93018,0.0300774
76.1,1.73032,0.930542,0.02876
78.4,1.96756,0.947542,0.0301354
80.7,2.2041,0.945556,0.0304098
83,2.43908,0.967045,0.031373
85.3,2.67141,0.977016,0.0313991
87.6,2.90386,0.981555,0.0300797
89.9,3.1334,0.987407,0.03008
92.2,3.36212,0.980166,0.0300791
94.5,3.59108,0.980539,0.0300785
96.8,3.81802,0.989808,0.0294317
99.1,4.04371,0.992177,0.0287586
101.4,4.27004,0.987036,0.0307395
103.7,4.49455,0.998173,0.03008
106,4.72,1.00432,0.0300802
108.3,4.94303,1.00162,0.03008
110.6,5.16773,1.01213,0.0313997
112.9,5.39166,1.01838,0.0313272
115.2,5.61584,1.0246,0.0302261
117.5,5.83908,1.02542,0.03205
119.8,6.06125,1.03003,0.0325
122.1,6.28494,1.03267,0.0325694
124.4,6.50684,1.03424,0.0326117
126.7,6.73024,1.03738,0.0321432
129,6.95188,1.05012,0.0321751
131.3,7.17492,1.04489,0.0321702
133.6,7.39549,1.03849,0.0321702
135.9,7.61657,1.04561,0.0325115
138.2,7.83798,1.04181,0.0321671
140.5,8.05943,1.04254,0.0341744
142.8,8.27842,1.04665,0.0315098
145.1,8.50031,1.04369,0.03151
147.4,8.72022,1.05225,0.0308881
149.7,8.9381,1.05602,0.0308495
152,9.15966,1.05812,0.0318755
154.3,9.37898,1.05597,0.032504
156.6,9.59893,1.06352,0.0321612
158.9,9.81878,1.07165,0.0331499
161.2,10.0373,1.07464,0.0328305
163.5,10.2578,1.08648,0.0315
165.8,10.4756,1.08006,0.0309288
168.1,10.696,1.09331,0.0305305
170.4,10.9155,1.10489,0.0292222
172.7,11.1326,1.10745,0.0301885
175,11.3541,1.12258,0.0285522
177.3,11.5744,1.13334,0.0291978
179.6,11.7934,1.1392,0.0268991
181.9,12.0115,1.14228,0.02723
184.2,12.2311,1.15649,0.02591
186.5,12.4498,1.15819,0.02459
188.8,12.668,1.17406,0.024573
191.1,12.8864,1.17886,0.0233744
193.4,13.1051,1.18019,0.0236025
195.7,13.3236,1.1786,0.0209709
198,13.5421,1.18986,0.0196531
200.3,13.759,1.1798,0.0194674
202.6,13.978,1.18671,0.0167143
204.9,14.1972,1.18718,0.0145716
207.2,14.4139,1.19148,0.0127221
209.5,14.6305,1.19847,0.0117727
211.8,14.8515,1.18561,0.00976958
214.1,15.0701,1.19205,0.00582016
216.4,15.2892,1.1893,0.00319023
218.7,15.5086,1.18723,0.000546426
221,15.7278,1.19994,-0.0020799
223.3,15.9452,1.20263,-0.00603717
225.6,16.1646,1.19783,-0.00868237
227.9,16.3834,1.21119,-0.0139635
230.2,16.6013,1.21077,-0.0202004
232.5,16.8198,1.22224,-0.025987
234.8,17.0382,1.23133,-0.0336964
237.1,17.2569,1.23817,-0.0395381
239.4,17.4758,1.26117,-0.0482879
241.7,17.6942,1.28933,-0.0591978
244,17.9116,1.30875,-0.068867
246.3,18.1328,1.33517,-0.0795213
248.6,18.3514,1.37172,-0.0928875
250.9,18.5705,1.4192,-0.106222
253.2,18.791,1.45444,-0.1223
255.5,19.01,1.49549,-0.141713
257.8,19.23,1.54593,-0.160731
260.1,19.4491,1.62578,-0.180338
262.4,19.6702,1.72507,-0.205898
264.7,19.8912,1.83751,-0.236234
267,20.1117,1.97628,-0.267839
269.3,20.3324,2.12798,-0.305632
271.6,20.5525,2.30329,-0.348295
273.9,20.7744,2.48413,-0.396863
276.2,20.9963,2.66155,-0.452068
278.5,21.2179,2.8231,-0.515008
280.8,21.4391,2.97765,-0.582562
283.1,21.6609,3.10765,-0.65942
285.4,21.8811,3.21167,-0.740075
287.7,22.1016,3.29189,-0.828751
290,22.3218,3.33914,-0.918967
292.3,22.5423,3.35675,-1.01735
294.6,22.761,3.32622,-1.11331
296.9,22.9804,3.26498,-1.21582
299.2,23.199,3.1345,-1.31386
301.5,23.4162,2.94589,-1.40984
303.8,23.6339,2.69845,-1.50131
306.1,23.8513,2.39354,-1.58505
308.4,24.067,2.07136,-1.65771
310.7,24.2825,1.7536,-1.72139
313,24.5,1.48155,-1.77363
315.3,24.7155,1.29795,-1.81966
317.6,24.9339,1.14284,-1.85817
319.9,25.1534,1.03537,-1.89305
322.2,25.3723,0.952148,-1.92421
324.5,25.5923,0.872851,-1.95349
326.8,25.8108,0.805007,-1.98069
329.1,26.0294,0.733479,-2.00492
331.4,26.248,0.662232,-2.02694
333.7,26.4702,0.588697,-2.04869
336,26.6913,0.516561,-2.07043
338.3,26.9119,0.44634,-2.08783
340.6,27.1322,0.37737,-2.10365
342.9,27.3534,0.319983,-2.12209
345.2,27.5735,0.25037,-2.13547
347.5,27.7939,0.188307,-2.14891
349.8,28.0152,0.132901,-2.16241
352.1,28.2361,0.0786972,-2.1737
354.4,28.4576,0.0327003,-2.18415
356.7,28.6785,-0.0134768,-2.19545
359,28.8995,-0.0532434,-2.20332
361.3,29.1218,-0.0718019,-2.21511
363.6,29.3443,-0.0883415,-2.22329
365.9,29.5651,-0.107902,-2.23204
368.2,29.7879,-0.114283,-2.24112
370.5,30.0107,-0.116595,-2.25008
372.8,30.2328,-0.109359,-2.26025
375.1,30.4557,-0.0897808,-2.26813
377.4,30.6798,-0.0945534,-2.27793
379.7,30.9024,-0.0810712,-2.2894
382,31.1259,-0.0663689,-2.30085
384.3,31.3498,-0.0543125,-2.31161
386.6,31.5724,-0.0375002,-2.32317
388.9,31.7958,-0.0164371,-2.33839
391.2,32.0205,0.000606303,-2.35017
393.5,32.2451,0.00466671,-2.36589
395.8,32.4694,0.017273,-2.38045
398.1,32.6916,0.0199723,-2.39487
400.4,32.9156,0.0325196,-2.41263
402.7,33.1391,0.0248347,-2.42885
405,33.3628,0.0272034,-2.44721
407.3,33.587,0.0133193,-2.46535
409.6,33.8103,0.0104827,-2.4829
411.9,34.0336,-0.00382787,-2.5016
414.2,34.2586,-0.019229,-2.52125
416.5,34.4835,-0.0315915,-2.54025
418.8,34.7079,-0.0492626,-2.55854
421.1,34.9321,-0.0487453,-2.57673
423.4,35.1564,-0.0579678,-2.59578
425.7,35.381,-0.0694868,-2.61415
428,35.6053,-0.0764907,-2.63364
430.3,35.8294,-0.0720412,-2.65329
432.6,36.055,-0.0613842,-2.67279
434.9,36.278,-0.0569647,-2.69266
437.2,36.5054,-0.0501509,-2.7133
439.5,36.7308,-0.0304642,-2.73456
441.8,36.9566,-0.0144371,-2.75711
444.1,37.1832,0.0147174,-2.77807
446.4,37.4088,0.036279,-2.8003
448.7,37.6348,0.0477066,-2.82175
451,37.8603,0.0653933,-2.84308
453.3,38.0872,0.0781384,-2.86432
455.6,38.3126,0.0754908,-2.88504
457.9,38.5375,0.0710542,-2.90511
460.2,38.7645,0.0662571,-2.92287
462.5,38.9904,0.0536786,-2.93958
464.8,39.2167,0.0487996,-2.95674
467.1,39.4426,0.0324914,-2.97331
469.4,39.6692,0.0133579,-2.98783
471.7,39.8954,-0.00122379,-3.00029
474,40.1222,-0.00329374,-3.01169
476.3,40.3475,-0.0284249,-3.02486
478.6,40.5748,-0.0355396,-3.0328
480.9,40.8009,-0.0352862,-3.03989
483.2,41.0268,-0.0369977,-3.04792
485.5,41.2535,-0.0512436,-3.05298
487.8,41.4792,-0.053767,-3.05982
490.1,41.7067,-0.063035,-3.06635
492.4,41.9321,-0.0702029,-3.07018
494.7,42.1613,-0.0762284,-3.07522
497,42.3876,-0.0761986,-3.07913
499.3,42.6125,-0.0850619,-3.08215
501.6,42.8415,-0.092637,-3.0881
503.9,43.0696,-0.0893678,-3.09104
506.2,43.2966,-0.085249,-3.09499
508.5,43.5243,-0.090713,-3.09624
510.8,43.7505,-0.0971812,-3.09764
513.1,43.9788,-0.092293,-3.10159
515.4,44.2047,-0.0971553,-3.10422
517.7,44.4305,-0.102849,-3.10686
520,44.6587,-0.0915231,-3.10817
522.3,44.8875,-0.0947765,-3.10941
524.6,45.1134,-0.0832182,-3.11477
526.9,45.3421,-0.0844434,-3.11476
529.2,45.5689,-0.0790214,-3.1174
531.5,45.796,-0.0889489,-3.12003
533.8,46.0249,-0.0801509,-3.12136
536.1,46.2516,-0.0771703,-3.12336
538.4,46.4796,-0.0748857,-3.12391
540.7,46.7081,-0.0743276,-3.12661
543,46.9353,-0.0719805,-3.12794
545.3,47.1632,-0.0841203,-3.13036
547.6,47.3911,-0.078842,-3.1309
549.9,47.6182,-0.0749212,-3.13287
552.2,47.8474,-0.0784758,-3.13479
554.5,48.0735,-0.0772308,-3.13616
556.8,48.3035,-0.0775067,-3.13745
559.1,48.5313,-0.0699625,-3.13851
561.4,48.7597,-0.0655256,-3.13947
563.7,48.9894,-0.0615738,-3.14078
566,49.2172,-0.0627709,-3.14078
568.3,49.4455,-0.0692947,-3.1421
570.6,49.6744,-0.0615335,-3.14211
572.9,49.902,-0.070063,-3.1444
575.2,50.1312,-0.0601988,-3.14407
577.5,50.3596,-0.0679433,-3.14572
579.8,50.5875,-0.0674628,-3.14704
582.1,50.8158,-0.0715654,-3.14736
584.4,51.0447,-0.0721709,-3.14867
586.7,51.2728,-0.0706339,-3.15099
589,51.5021,-0.0717883,-3.15099
591.3,51.7316,-0.0677637,-3.15299
593.6,51.9602,-0.066506,-3.15362
595.9,52.19,-0.0666516,-3.15628
598.2,52.4194,-0.0635394,-3.15757
600.5,52.6492,-0.0711134,-3.15857
602.8,52.8793,-0.0745188,-3.15988
605.1,53.1085,-0.0766894,-3.1612
607.4,53.3359,-0.0815052,-3.16351
609.7,53.5674,-0.0829428,-3.16417
612,53.7964,-0.0854738,-3.16344
614.3,54.0277,-0.0914196,-3.16647
616.6,54.2561,-0.0947136,-3.16878
618.9,54.488,-0.105362,-3.16746
621.2,54.7168,-0.111866,-3.17142
623.5,54.9476,-0.124946,-3.17141
625.8,55.177,-0.125526,-3.1714
628.1,55.4071,-0.140046,-3.17339
630.4,55.637,-0.141205,-3.17404
632.7,55.8679,-0.15839,-3.17635
635,56.0985,-0.168893,-3.17766
637.3,56.329,-0.185536,-3.17833
639.6,56.5587,-0.19683,-3.17977
641.9,56.7905,-0.194526,-3.17965
644.2,57.0214,-0.192631,-3.17931
646.5,57.2522,-0.196192,-3.18096
648.8,57.4836,-0.201062,-3.18228
651.1,57.7149,-0.205878,-3.18326
653.4,57.947,-0.203367,-3.18566
655.7,58.1785,-0.215455,-3.18722
658,58.4103,-0.218128,-3.18722
660.3,58.6412,-0.227248,-3.19018
662.6,58.8714,-0.231664,-3.19018
664.9,59.1048,-0.233473,-3.19079
667.2,59.3357,-0.245234,-3.19051
669.5,59.5675,-0.248915,-3.19183
671.8,59.7992,-0.260461,-3.19447
674.1,60.032,-0.269213,-3.19446
676.4,60.2636,-0.267629,-3.1971
678.7,60.4958,-0.269308,-3.19842
681,60.7288,-0.26345,-3.19908
683.3,60.9618,-0.27954,-3.20112
685.6,61.1931,-0.274264,-3.20171
687.9,61.4255,-0.284904,-3.20391
690.2,61.6561,-0.298175,-3.20434
692.5,61.8887,-0.303374,-3.20702
694.8,62.1211,-0.319692,-3.20566
697.1,62.3525,-0.315434,-3.20829
699.4,62.5852,-0.323479,-3.20952
701.7,62.817,-0.335346,-3.21126
704,63.0479,-0.334082,-3.21126
706.3,63.2817,-0.339655,-3.21257
708.6,63.5146,-0.34366,-3.21357
710.9,63.7478,-0.356774,-3.2162
713.2,63.982,-0.362964,-3.21752
715.5,64.2147,-0.369865,-3.21715
717.8,64.4483,-0.379602,-3.21851
720.1,64.6808,-0.388695,-3.22081
722.4,64.9131,-0.399294,-3.22259
724.7,65.1464,-0.402097,-3.22377
727,65.3774,-0.41823,-3.22377
729.3,65.6101,-0.415926,-3.22504
731.6,65.8424,-0.423563,-3.22647
733.9,66.0749,-0.427724,-3.22743
736.2,66.3079,-0.424737,-3.22872
738.5,66.5401,-0.426583,-3.22904
740,66.6924,-0.435365,-3.23101