Folder: fsri_materials_database/01_Data/Helmet_Shield/STA/N2/30K_min

File: Helmet_Shield_STA_N2_30KData_240301_R1.csv
Temp./C,Time/min,DSC/(mW/mg),Mass loss/mg
60.0,0.0,1.55879,-0.0108621
62.3,0.115221,1.77757,-0.0112977
64.6,0.221246,1.97371,-0.00909582
66.9,0.320158,2.14503,-0.0120737
69.2,0.415423,2.29966,-0.00988565
71.5,0.507472,2.42225,-0.0093771
73.8,0.596316,2.54023,-0.00886354
76.1,0.683325,2.6514,-0.0103996
78.4,0.768547,2.74904,-0.0107128
80.7,0.851771,2.83074,-0.00988648
83,0.933808,2.91104,-0.009467
85.3,1.01535,2.98793,-0.00784609
87.6,1.0957,3.04822,-0.00815727
89.9,1.17467,3.10427,-0.00890512
92.2,1.25384,3.15884,-0.00983954
94.5,1.33249,3.19213,-0.0116295
96.8,1.41007,3.24251,-0.0129655
99.1,1.48714,3.27545,-0.0130926
101.4,1.56391,3.29436,-0.0142717
103.7,1.64043,3.32948,-0.0141995
106,1.71706,3.35683,-0.0140598
108.3,1.79367,3.37314,-0.0128896
110.6,1.86987,3.39869,-0.0126524
112.9,1.94557,3.42568,-0.0129499
115.2,2.02144,3.43685,-0.0125018
117.5,2.0971,3.44967,-0.01295
119.8,2.17333,3.46846,-0.0115452
122.1,2.24867,3.48811,-0.0130413
124.4,2.3243,3.49608,-0.01427
126.7,2.39917,3.50862,-0.0152652
129,2.47425,3.52911,-0.015206
131.3,2.54901,3.53395,-0.0165699
133.6,2.62323,3.54527,-0.0152682
135.9,2.69669,3.56637,-0.01525
138.2,2.7711,3.58311,-0.0152506
140.5,2.84424,3.59182,-0.0155105
142.8,2.91837,3.61448,-0.0175549
145.1,2.99173,3.62649,-0.01756
147.4,3.06512,3.63005,-0.0162122
149.7,3.13748,3.65602,-0.0175921
152,3.21035,3.66918,-0.0163549
154.3,3.28322,3.66762,-0.0149454
156.6,3.35558,3.68936,-0.0162151
158.9,3.42786,3.69056,-0.01724
161.2,3.50059,3.71058,-0.0172393
163.5,3.57262,3.72422,-0.0159306
165.8,3.6449,3.74314,-0.0172756
168.1,3.71676,3.75892,-0.01724
170.4,3.78857,3.76953,-0.01724
172.7,3.86031,3.79308,-0.01724
175,3.93203,3.81066,-0.0172379
177.3,4.0033,3.83053,-0.0192163
179.6,4.07506,3.84642,-0.01921
181.9,4.14641,3.8692,-0.01921
184.2,4.21775,3.87865,-0.01921
186.5,4.28842,3.90307,-0.019185
188.8,4.35922,3.93352,-0.0198699
191.1,4.42979,3.96006,-0.0197986
193.4,4.50031,3.97346,-0.0201999
195.7,4.571,4.01409,-0.0209773
198,4.64126,4.03494,-0.0215292
200.3,4.71171,4.05288,-0.022829
202.6,4.78159,4.07439,-0.0216682
204.9,4.85194,4.09531,-0.0228391
207.2,4.92176,4.11565,-0.0248818
209.5,4.99209,4.12319,-0.02514
211.8,5.06201,4.1509,-0.025134
214.1,5.132,4.15448,-0.0252685
216.4,5.20124,4.16561,-0.0265849
218.7,5.27147,4.17466,-0.0287217
221,5.34126,4.17678,-0.0294338
223.3,5.41075,4.18918,-0.031845
225.6,5.48064,4.20009,-0.0331238
227.9,5.55005,4.21034,-0.0359701
230.2,5.61975,4.21419,-0.0372671
232.5,5.68887,4.22365,-0.0414334
234.8,5.75867,4.24175,-0.0426937
237.1,5.82822,4.24769,-0.0443133
239.4,5.89819,4.26402,-0.0472492
241.7,5.96747,4.28891,-0.0494717
244,6.0366,4.302,-0.05346
246.3,6.10635,4.32734,-0.0564041
248.6,6.1763,4.35683,-0.0592617
250.9,6.24533,4.36774,-0.0646557
253.2,6.31489,4.36456,-0.0704009
255.5,6.38373,4.3652,-0.0752482
257.8,6.45251,4.37641,-0.0825274
260.1,6.52282,4.40778,-0.0892352
262.4,6.5925,4.46252,-0.0973814
264.7,6.66204,4.51877,-0.106029
267,6.7315,4.6091,-0.114943
269.3,6.80135,4.70957,-0.125453
271.6,6.87088,4.83428,-0.138111
273.9,6.94088,4.99828,-0.151995
276.2,7.01109,5.18338,-0.166765
278.5,7.08067,5.40086,-0.183214
280.8,7.15083,5.66124,-0.20465
283.1,7.22173,5.95598,-0.229491
285.4,7.29268,6.2966,-0.257099
287.7,7.36367,6.67441,-0.288182
290,7.43467,7.08102,-0.325356
292.3,7.50584,7.51038,-0.36818
294.6,7.57717,7.94325,-0.418632
296.9,7.64794,8.38806,-0.474266
299.2,7.71944,8.87267,-0.537738
301.5,7.79104,9.35796,-0.611562
303.8,7.86258,9.81367,-0.695094
306.1,7.93363,10.1546,-0.784023
308.4,8.00389,10.3808,-0.878346
310.7,8.07405,10.4728,-0.983046
313,8.14356,10.3734,-1.09463
315.3,8.21245,10.013,-1.20538
317.6,8.27993,9.33462,-1.31116
319.9,8.34636,8.39271,-1.41547
322.2,8.4129,7.26196,-1.50988
324.5,8.47872,6.1796,-1.58872
326.8,8.5458,5.34794,-1.65543
329.1,8.61339,4.80329,-1.71373
331.4,8.68236,4.44815,-1.76469
333.7,8.75092,4.20218,-1.81272
336,8.81988,3.98199,-1.8589
338.3,8.88905,3.75604,-1.89828
340.6,8.95805,3.5378,-1.93397
342.9,9.02732,3.29279,-1.96877
345.2,9.09649,3.05001,-2.00508
347.5,9.16512,2.82058,-2.03259
349.8,9.2349,2.58782,-2.05881
352.1,9.30412,2.35345,-2.08552
354.4,9.3732,2.13592,-2.10781
356.7,9.44292,1.9148,-2.13061
359,9.51259,1.70655,-2.15241
361.3,9.58236,1.50069,-2.17026
363.6,9.65174,1.29391,-2.18713
365.9,9.72181,1.09362,-2.20206
368.2,9.79105,0.921657,-2.21586
370.5,9.86165,0.753417,-2.22964
372.8,9.93187,0.598024,-2.24227
375.1,10.0024,0.462991,-2.2526
377.4,10.0726,0.352377,-2.26376
379.7,10.1429,0.258047,-2.2733
382,10.2137,0.174854,-2.28435
384.3,10.2844,0.134805,-2.29356
386.6,10.3554,0.0992674,-2.30329
388.9,10.4261,0.0766668,-2.31166
391.2,10.4976,0.0863546,-2.32029
393.5,10.5689,0.105513,-2.3309
395.8,10.6398,0.131458,-2.3411
398.1,10.7113,0.164864,-2.3522
400.4,10.7826,0.198254,-2.36119
402.7,10.8543,0.234748,-2.37196
405,10.9259,0.256734,-2.3837
407.3,10.9976,0.292871,-2.39652
409.6,11.0693,0.338881,-2.40923
411.9,11.1416,0.371836,-2.42227
414.2,11.2132,0.412544,-2.43689
416.5,11.2851,0.423972,-2.45322
418.8,11.3571,0.453501,-2.47039
421.1,11.4289,0.456091,-2.48858
423.4,11.5012,0.459352,-2.50616
425.7,11.5732,0.447269,-2.52489
428,11.6455,0.434662,-2.54407
430.3,11.7175,0.394582,-2.56489
432.6,11.7897,0.363749,-2.58344
434.9,11.8621,0.321148,-2.6047
437.2,11.9342,0.265754,-2.62375
439.5,12.0064,0.225276,-2.64382
441.8,12.0788,0.185545,-2.66421
444.1,12.1511,0.146965,-2.68358
446.4,12.2238,0.122112,-2.70391
448.7,12.2967,0.109421,-2.72438
451,12.3693,0.118942,-2.74528
453.3,12.442,0.126985,-2.76552
455.6,12.5151,0.162477,-2.78514
457.9,12.588,0.203756,-2.80569
460.2,12.6612,0.239534,-2.82822
462.5,12.7341,0.282282,-2.84866
464.8,12.8072,0.318116,-2.86989
467.1,12.8806,0.343452,-2.88896
469.4,12.9539,0.363963,-2.90957
471.7,13.0271,0.373343,-2.92899
474,13.1003,0.377381,-2.94899
476.3,13.1735,0.364374,-2.96776
478.6,13.2468,0.339744,-2.986
480.9,13.3198,0.309429,-3.00269
483.2,13.3929,0.276564,-3.01895
485.5,13.4661,0.244088,-3.03548
487.8,13.5397,0.202349,-3.04864
490.1,13.613,0.166027,-3.06397
492.4,13.6862,0.131927,-3.07524
494.7,13.7589,0.101152,-3.08554
497,13.8329,0.0666191,-3.09613
499.3,13.9065,0.0440197,-3.10541
501.6,13.9801,0.0184509,-3.11328
503.9,14.0536,-0.00775723,-3.12175
506.2,14.1276,-0.030831,-3.128
508.5,14.2014,-0.0525593,-3.13384
510.8,14.2754,-0.0668951,-3.13882
513.1,14.349,-0.0793014,-3.14348
515.4,14.4232,-0.0895745,-3.14646
517.7,14.4972,-0.0957446,-3.15121
520,14.5713,-0.105202,-3.15503
522.3,14.6451,-0.100525,-3.15688
524.6,14.7195,-0.113037,-3.16186
526.9,14.7936,-0.115228,-3.1653
529.2,14.8674,-0.127571,-3.16789
531.5,14.9421,-0.133229,-3.17053
533.8,15.0164,-0.143608,-3.17316
536.1,15.0903,-0.138228,-3.17334
538.4,15.1656,-0.137121,-3.17591
540.7,15.24,-0.142511,-3.17789
543,15.3147,-0.140113,-3.17976
545.3,15.3892,-0.142039,-3.18378
547.6,15.4633,-0.1345,-3.18668
549.9,15.5387,-0.12639,-3.18799
552.2,15.6134,-0.111603,-3.18925
554.5,15.6881,-0.11153,-3.18938
556.8,15.7629,-0.0957284,-3.19201
559.1,15.8377,-0.0890779,-3.19336
561.4,15.9124,-0.0783922,-3.19468
563.7,15.9868,-0.0739662,-3.19504
566,16.0624,-0.0626732,-3.19686
568.3,16.1373,-0.0609108,-3.19896
570.6,16.2124,-0.0528531,-3.20029
572.9,16.2872,-0.0403746,-3.2003
575.2,16.3625,-0.0359152,-3.20427
577.5,16.4376,-0.0297358,-3.20424
579.8,16.5125,-0.0227814,-3.20423
582.1,16.5876,-0.0218354,-3.20555
584.4,16.6629,-0.024241,-3.20689
586.7,16.7383,-0.0279888,-3.20947
589,16.8131,-0.0182389,-3.2095
591.3,16.8882,-0.0115842,-3.21084
593.6,16.9641,-0.00186815,-3.21056
595.9,17.0395,0.000208929,-3.21117
598.2,17.1149,0.00414771,-3.21381
600.5,17.1904,0.0141507,-3.21521
602.8,17.2656,0.0228512,-3.21649
605.1,17.3414,0.0322173,-3.21752
607.4,17.4167,0.0337063,-3.21621
609.7,17.4927,0.0456183,-3.21756
612,17.5683,0.056031,-3.21932
614.3,17.644,0.0642767,-3.22146
616.6,17.7198,0.0680776,-3.2208
618.9,17.7957,0.0816564,-3.22279
621.2,17.8712,0.0881176,-3.22411
623.5,17.9472,0.100734,-3.22413
625.8,18.023,0.114111,-3.22537
628.1,18.0987,0.114824,-3.22682
630.4,18.1749,0.120552,-3.22935
632.7,18.2509,0.125771,-3.22948
635,18.3268,0.120147,-3.2308
637.3,18.4023,0.115842,-3.23217
639.6,18.4785,0.112451,-3.23212
641.9,18.5547,0.11649,-3.23211
644.2,18.6307,0.107992,-3.23378
646.5,18.7071,0.0996669,-3.23673
648.8,18.783,0.0849082,-3.23735
651.1,18.8591,0.0817374,-3.23674
653.4,18.9356,0.0752803,-3.23806
655.7,19.0115,0.0669052,-3.23936
658,19.0877,0.0588622,-3.24068
660.3,19.1638,0.0406623,-3.24068
662.6,19.2402,0.0307254,-3.24072
664.9,19.3163,0.0274323,-3.24199
667.2,19.3927,0.0252642,-3.24364
669.5,19.4688,0.00942648,-3.24605
671.8,19.5453,-0.00468703,-3.24661
674.1,19.6217,-0.0138429,-3.24746
676.4,19.6979,-0.0261899,-3.24604
678.7,19.7743,-0.0387125,-3.25006
681,19.8506,-0.0456347,-3.25136
683.3,19.9269,-0.0582157,-3.25364
685.6,20.0031,-0.067221,-3.25529
687.9,20.0793,-0.0769159,-3.2566
690.2,20.1557,-0.0894202,-3.25791
692.5,20.2322,-0.102174,-3.25651
694.8,20.3085,-0.113706,-3.25794
697.1,20.3849,-0.129475,-3.25707
699.4,20.4612,-0.142525,-3.26063
701.7,20.5377,-0.161727,-3.26055
704,20.614,-0.172961,-3.26186
706.3,20.6906,-0.187095,-3.26272
708.6,20.767,-0.201345,-3.26187
710.9,20.843,-0.214883,-3.26321
713.2,20.92,-0.213885,-3.2645
715.5,20.9966,-0.227419,-3.26582
717.8,21.0734,-0.247247,-3.26714
720.1,21.1502,-0.259824,-3.26845
722.4,21.2272,-0.273347,-3.26977
724.7,21.3037,-0.286717,-3.27109
727,21.3807,-0.304314,-3.27241
729.3,21.4577,-0.321021,-3.27504
731.6,21.5346,-0.334129,-3.27636
733.9,21.6115,-0.355283,-3.2764
736.2,21.6882,-0.373198,-3.27768
738.5,21.7654,-0.393146,-3.27898
740,21.8159,-0.406256,-3.28031