Folder: fsri_materials_database/01_Data/PLA_3D_Printer_Filament/FTIR/IS

File: PLA_3D_Printer_Filament_IS_T_221108_R8.dpt
7497.03,0.02824
7473.89,0.02198
7450.74,0.02772
7427.6,0.02625
7404.45,0.02150
7381.31,0.03205
7358.16,0.01127
7335.02,0.03346
7311.87,0.03255
7288.73,0.02485
7265.58,0.02576
7242.44,0.03105
7219.29,0.02208
7196.15,0.02221
7173,0.02565
7149.86,0.02279
7126.71,0.02677
7103.57,0.02765
7080.42,0.02804
7057.28,0.02881
7034.13,0.02596
7010.99,0.02348
6987.84,0.02127
6964.7,0.02057
6941.55,0.02303
6918.41,0.02629
6895.26,0.02576
6872.12,0.02542
6848.97,0.02190
6825.83,0.02343
6802.68,0.02421
6779.54,0.02772
6756.39,0.02652
6733.25,0.02182
6710.1,0.02635
6686.96,0.02176
6663.82,0.01982
6640.67,0.01650
6617.53,0.02268
6594.38,0.01764
6571.24,0.02590
6548.09,0.01787
6524.95,0.02162
6501.8,0.01870
6478.66,0.02124
6455.51,0.02218
6432.37,0.02218
6409.22,0.01910
6386.08,0.02372
6362.93,0.01798
6339.79,0.02135
6316.64,0.02273
6293.5,0.02072
6270.35,0.01717
6247.21,0.02473
6224.06,0.02298
6200.92,0.02358
6177.77,0.02294
6154.63,0.02323
6131.48,0.02404
6108.34,0.02127
6085.19,0.01744
6062.05,0.02063
6038.9,0.02316
6015.76,0.02106
5992.61,0.02289
5969.47,0.02451
5946.32,0.02170
5923.18,0.02208
5900.03,0.02076
5876.89,0.01988
5853.74,0.02496
5830.6,0.02189
5807.45,0.02169
5784.31,0.02089
5761.16,0.02243
5738.02,0.02026
5714.87,0.02003
5691.73,0.01833
5668.58,0.02291
5645.44,0.02033
5622.29,0.02295
5599.15,0.02081
5576,0.02254
5552.86,0.02269
5529.71,0.02252
5506.57,0.02289
5483.42,0.02072
5460.28,0.02238
5437.13,0.02011
5413.99,0.02124
5390.84,0.02177
5367.7,0.02012
5344.55,0.02117
5321.41,0.02206
5298.26,0.02057
5275.12,0.02252
5251.97,0.02338
5228.83,0.02136
5205.68,0.02217
5182.54,0.02182
5159.39,0.02233
5136.25,0.02058
5113.1,0.02207
5089.96,0.02110
5066.81,0.02234
5043.67,0.02209
5020.52,0.02351
4997.38,0.02190
4974.23,0.02140
4951.09,0.02154
4927.94,0.02124
4904.8,0.02067
4881.65,0.02123
4858.51,0.02174
4835.36,0.02122
4812.22,0.02150
4789.07,0.02194
4765.93,0.02331
4742.78,0.02279
4719.64,0.02164
4696.49,0.02209
4673.35,0.02160
4650.2,0.02216
4627.06,0.02241
4603.92,0.02136
4580.77,0.02159
4557.63,0.02226
4534.48,0.02191
4511.34,0.02187
4488.19,0.02247
4465.05,0.02271
4441.9,0.02144
4418.76,0.02237
4395.61,0.02233
4372.47,0.02218
4349.32,0.02329
4326.18,0.02202
4303.03,0.02174
4279.89,0.02244
4256.74,0.02241
4233.6,0.02295
4210.45,0.02226
4187.31,0.02359
4164.16,0.02192
4141.02,0.02263
4117.87,0.02216
4094.73,0.02227
4071.58,0.02209
4048.44,0.02221
4025.29,0.02234
4002.15,0.02271
3979,0.02238
3955.86,0.02216
3932.71,0.02274
3909.57,0.02262
3886.42,0.02283
3863.28,0.02277
3840.13,0.02224
3816.99,0.02257
3793.84,0.02237
3770.7,0.02246
3747.55,0.02286
3724.41,0.02267
3701.26,0.02230
3678.12,0.02186
3654.97,0.02163
3631.83,0.02202
3608.68,0.02162
3585.54,0.02125
3562.39,0.02117
3539.25,0.02117
3516.1,0.02074
3492.96,0.02048
3469.81,0.02107
3446.67,0.02137
3423.52,0.02085
3400.38,0.02045
3377.23,0.02001
3354.09,0.02044
3330.94,0.02066
3307.8,0.02013
3284.65,0.01970
3261.51,0.02067
3238.36,0.02047
3215.22,0.02030
3192.07,0.02077
3168.93,0.02089
3145.78,0.02074
3122.64,0.02056
3099.49,0.02099
3076.35,0.02037
3053.2,0.02085
3030.06,0.02073
3006.91,0.02022
2983.77,0.01970
2960.62,0.02004
2937.48,0.01979
2914.33,0.02035
2891.19,0.02067
2868.04,0.02089
2844.9,0.02130
2821.75,0.02147
2798.61,0.02100
2775.46,0.02175
2752.32,0.02182
2729.17,0.02100
2706.03,0.02136
2682.88,0.02119
2659.74,0.02180
2636.59,0.02137
2613.45,0.02095
2590.3,0.02106
2567.16,0.02143
2544.02,0.02175
2520.87,0.02141
2497.73,0.02144
2474.58,0.02146
2451.44,0.02160
2428.29,0.02171
2405.15,0.02096
2382,0.02143
2358.86,0.02125
2335.71,0.02168
2312.57,0.02144
2289.42,0.02097
2266.28,0.02095
2243.13,0.02138
2219.99,0.02103
2196.84,0.02119
2173.7,0.02132
2150.55,0.02120
2127.41,0.02094
2104.26,0.02097
2081.12,0.02090
2057.97,0.02105
2034.83,0.02093
2011.68,0.02109
1988.54,0.02082
1965.39,0.02102
1942.25,0.02116
1919.1,0.02110
1895.96,0.02073
1872.81,0.02073
1849.67,0.02065
1826.52,0.02027
1803.38,0.02002
1780.23,0.01927
1757.09,0.01776
1733.94,0.02013
1710.8,0.02080
1687.65,0.01956
1664.51,0.01896
1641.36,0.01877
1618.22,0.01909
1595.07,0.01904
1571.93,0.01878
1548.78,0.01869
1525.64,0.01934
1502.49,0.01883
1479.35,0.01889
1456.2,0.01900
1433.06,0.01883
1409.91,0.01882
1386.77,0.01870
1363.62,0.01829
1340.48,0.01807
1317.33,0.01757
1294.19,0.01818
1271.04,0.01949
1247.9,0.02081
1224.75,0.01975
1201.61,0.01889
1178.46,0.01852
1155.32,0.01778
1132.17,0.01779
1109.03,0.01931
1085.88,0.01866
1062.74,0.02074
1039.59,0.02002
1016.45,0.01951
993.304,0.02150
970.159,0.02091
947.014,0.01971
923.869,0.01956
900.724,0.02013
877.579,0.01879
854.434,0.01921
831.289,0.01887
808.144,0.01878
784.999,0.01893
761.854,0.01796
738.709,0.01798
715.565,0.01815
692.42,0.01759
669.275,0.01763
646.13,0.01717
622.985,0.01548
599.84,0.01413