Folder: fsri_materials_database/01_Data/Eucalyptus_Flooring/Cone

File: Eucalyptus_Flooring_Cone_HF50Scalar_220526_R1.csv
LABORATORY,FSRI
TEST IDENT,Oak_Flooring_50_1
OPERATOR,Dow
MATERIAL,Oak Flooring
ORIENTATION,Horizontal
HEAT FLUX,50
SURF AREA,0.01
C FACTOR,0.0411596
SPEC HOLDER DIFF,-566
SPECIMEN MASS,160.07
SCAN TIME,0.25
O2 DELAY TIME,11
CO DELAY TIME,11
CO2 DELAY TIME,8
FLOW FACTOR,1
SCAN COUNT,10441
TIME TO IGN,35
END OF TEST SCAN,9961
END OF TEST TIME,2490.25
TEST STATUS,1
PRE TEST CMT,Dimensions: 100.28 x 99.95 x 14.08 mm; with tie wires
POST TEST CMT,Test ended according to average mass loss rate less than 150 g/m^2 over one minute. Very small flames remained at end of test.