Folder: fsri_materials_database/01_Data/Corrugated_Cardboard/Cone (part 2)

File: Corrugated_Cardboard_Cone_HF25Scan_250211_R3.csv
Names,Time,Stack TC,Smoke TC,Exh Press,Smoke Comp,Smoke Meas,CO Meter,CO2 Meter,O2 Meter,Sample Mass,Ext Coeff,Start Test,Flame Verif
Chan Gain,,500,500,1,1,1,1,1,1,1,1,1.0,1.0
Offset,,0,0,0.131183,0,0,0,0,0,0,0,0.0,0.0
Gain,,1,1,25.011,13.1923,20.2122,1,1,1,1.00092,1.05074,1.0,1.0
Units,sec,C,C,Pa,%,%,%,%,%,g,/m,,
Baseline,,36.9171,37.9564,158.728,99.8701,105.813,0.000317553,0.0423914,20.9475,-434.65,-0.532814,,
9,2,36.1432,37.5336,158.797,99.9608,106.015,0.000499542,0.0430399,20.9495,144.053,-0.541957,0.0,0.0
18,4.25,36.4176,37.3415,156.779,99.9403,105.933,0.000496213,0.0431737,20.9489,143.963,-0.536716,0.0,0.0
27,6.5,36.5123,37.3602,156.95,99.9145,105.893,0.000422913,0.0433084,20.9486,144.003,-0.535657,0.0,0.0
36,8.75,36.1946,37.4408,158.076,99.8662,105.817,0.000433498,0.0432148,20.9486,143.963,-0.533508,0.0,0.0
45,11,36.5564,37.1871,159.187,99.7986,105.756,0.000509289,0.0434606,20.9485,143.903,-0.534432,0.0,0.0
54,13.25,36.569,37.5187,156.495,99.7692,105.669,0.000628377,0.0446882,20.9474,143.913,-0.529565,0.0,0.0
63,15.5,36.4942,37.7704,158.414,99.7466,105.727,0.000774989,0.0485351,20.9448,143.903,-0.536703,0.0,0.0
72,17.75,35.9009,38.0252,157.629,99.6826,105.568,0.000908596,0.0536156,20.938,143.853,-0.528683,0.0,0.0
81,20,36.4399,37.8711,159.534,99.6697,105.292,0.000978477,0.0578328,20.931,143.863,-0.505823,0.0,0.0
90,22.25,36.1167,37.9978,160.193,99.6492,104.805,0.00100064,0.0605713,20.926,143.803,-0.464967,0.0,0.0
99,24.5,36.5375,37.841,161.036,99.6077,104.135,0.000976871,0.0629118,20.9225,143.783,-0.409703,0.0,0.0
108,26.75,36.6205,38.2201,156.192,99.5506,103.898,0.000937242,0.063729,20.921,143.663,-0.394005,0.0,0.0
117,29,36.6925,38.2782,157.361,99.5763,103.006,0.000960768,0.0636294,20.9204,143.653,-0.312154,0.0,0.0
126,31.25,37.0015,40.0095,139.3,99.584,102.09,0.00122783,0.0633291,20.9206,143.262,-0.229061,0.0,1.0
135,33.5,38.514,46.2966,143.791,99.5707,100.682,0.00157904,0.0633455,20.9217,142.892,-0.102324,0.0,1.0
144,35.75,40.6685,50.8083,142.219,99.5735,101.043,0.00183919,0.0629766,20.9221,142.532,-0.135038,0.0,1.0
153,38,42.2205,53.6322,146.222,99.6186,103.051,0.00232784,0.0658462,20.922,142.251,-0.31227,0.0,0.0
162,40.25,43.7607,55.4314,149.273,99.673,103.261,0.002884,0.114678,20.9118,142.031,-0.325926,0.0,0.0
171,42.5,44.2014,56.2305,147.759,99.6677,104.52,0.00319678,0.215046,20.8525,141.821,-0.438158,0.0,0.0
180,44.75,44.757,55.786,148.495,99.7269,104.175,0.0033765,0.342109,20.7051,141.721,-0.40223,0.0,0.0
189,47,44.6931,56.1085,150.991,99.7857,104.481,0.00330736,0.388487,20.584,141.571,-0.423829,0.0,0.0
198,49.25,45.1675,55.303,148.964,99.8175,105.117,0.00306487,0.37506,20.5502,141.471,-0.476822,0.0,0.0
207,51.5,44.9238,54.241,153.029,99.867,104.985,0.00275825,0.339009,20.569,141.281,-0.460669,0.0,0.0
216,53.75,45.0832,53.6759,148.721,99.9081,105.028,0.00251405,0.298224,20.6139,141.14,-0.46067,0.0,0.0
225,56,44.853,52.8658,147.119,99.9745,104.716,0.00253346,0.264616,20.6585,141.05,-0.427113,0.0,0.0
234,58.25,45.1029,52.901,151.538,99.9745,105,0.00300757,0.239068,20.6921,140.82,-0.452053,0.0,0.0
243,60.5,45.2991,53.0978,150.345,100.002,104.336,0.0037,0.220258,20.7233,140.64,-0.391047,0.0,0.0
252,62.75,46.0542,54.0145,143.763,100.004,104.491,0.00434341,0.208682,20.7452,140.49,-0.404511,0.0,0.0
261,65,46.8399,54.9589,146.863,99.9922,104.144,0.00466239,0.203069,20.7562,140.28,-0.374958,0.0,0.0
270,67.25,46.9178,55.6261,145.836,99.9528,103.967,0.00497034,0.20488,20.7616,140.099,-0.362915,0.0,0.0
279,69.5,47.2175,55.7617,147.506,99.8775,104.294,0.00538115,0.214426,20.7602,139.969,-0.398797,0.0,0.0
288,71.75,47.0219,55.3558,150.552,99.7756,104.836,0.00531064,0.234869,20.7487,139.809,-0.455993,0.0,0.0
297,74,47.3346,54.5525,151.563,99.6186,105.143,0.00483659,0.257358,20.7202,139.649,-0.497477,0.0,0.0
306,76.25,46.6621,53.3206,158.745,99.5155,104.936,0.0043726,0.267301,20.6996,139.579,-0.488831,0.0,0.0
315,78.5,46.6762,52.5464,156.269,99.6025,105.356,0.00395846,0.263445,20.6922,139.489,-0.517602,0.0,0.0
324,80.75,46.7782,51.8692,156.968,99.6947,105.402,0.00368368,0.251371,20.6969,139.379,-0.513067,0.0,0.0
333,83,46.0266,50.6804,153.191,99.7849,105.411,0.00366235,0.232103,20.7147,139.299,-0.505597,0.0,0.0
342,85.25,45.6073,49.3898,158.133,99.9516,105.77,0.00427085,0.208574,20.7388,139.299,-0.52155,0.0,0.0
351,87.5,45.3369,48.3572,155.134,100.075,105.978,0.00537671,0.186877,20.7631,139.219,-0.528203,0.0,0.0
360,89.75,44.7977,47.3774,153.751,100.181,106.424,0.00629546,0.169682,20.7829,139.129,-0.557251,0.0,0.0
369,92,44.6408,46.4745,156.269,100.294,106.128,0.00700244,0.155015,20.7995,139.149,-0.52108,0.0,0.0
378,94.25,43.4123,45.3416,157.611,100.404,106.269,0.00772177,0.14154,20.8177,139.169,-0.523298,0.0,0.0
387,96.5,42.0229,42.9014,154.985,100.43,106.687,0.00819343,0.131757,20.8329,139.089,-0.55708,0.0,0.0
396,98.75,41.5469,42.3458,154.279,100.452,106.73,0.00854794,0.122258,20.8457,139.028,-0.558725,0.0,0.0
405,101,41.2571,41.9248,159.505,100.451,106.511,0.00871654,0.11195,20.8557,139.028,-0.539923,0.0,0.0
414,103.25,41.2958,41.0238,154.682,100.384,106.674,0.00876471,0.102806,20.8676,139.018,-0.560174,0.0,0.0
423,105.5,40.6319,41.5402,152.944,100.272,106.416,0.0088349,0.0975332,20.877,138.938,-0.548115,0.0,0.0
432,107.75,40.0189,40.9066,158.369,100.118,106.303,0.00876484,0.0943291,20.881,138.948,-0.552464,0.0,0.0
441,110,40.324,40.442,156.124,99.9294,106.137,0.00854692,0.0919294,20.8839,138.908,-0.555519,0.0,0.0
450,112.25,39.9519,39.8414,159.393,99.6911,105.76,0.00828249,0.0902646,20.8866,138.878,-0.544688,0.0,0.0
459,114.5,39.8899,39.7341,154.667,99.431,105.438,0.0079608,0.0892834,20.8876,138.818,-0.540661,0.0,0.0
468,116.75,39.2994,39.2116,160.413,99.1693,105.262,0.00745613,0.0880873,20.8892,138.868,-0.549571,0.0,0.0
477,119,38.8567,39.4562,158.221,98.9459,105.149,0.00701663,0.0869552,20.8914,138.848,-0.560418,0.0,0.0
486,121.25,38.9833,39.439,155.081,98.7095,104.692,0.00668859,0.0861131,20.8936,138.818,-0.542305,0.0,0.0
495,123.5,38.3782,39.1188,150.72,98.5642,104.581,0.00638793,0.0856438,20.8945,138.758,-0.546161,0.0,0.0
504,125.75,38.4766,39.0824,161.276,98.4728,104.457,0.00611745,0.085179,20.8949,138.748,-0.543777,0.0,0.0
513,128,38.3429,38.7398,156.358,98.4032,104.636,0.00594772,0.0845235,20.8951,138.748,-0.566015,0.0,0.0
522,130.25,38.7592,39.1483,162.307,98.4394,104.452,0.00576636,0.0834896,20.8959,138.698,-0.54647,0.0,0.0
531,132.5,38.2744,38.5517,155.312,98.5702,104.572,0.00555585,0.0827325,20.8969,138.728,-0.544781,0.0,0.0
540,134.75,38.3156,38.8276,160.142,98.7297,104.78,0.00548615,0.0820257,20.8973,138.698,-0.548243,0.0,0.0
549,137,38.1406,38.8829,157.516,98.9032,104.948,0.00550299,0.0817499,20.8973,138.658,-0.546805,0.0,0.0
558,139.25,38.2118,38.1436,155.849,99.1673,105.178,0.00537022,0.0815395,20.8982,138.638,-0.542355,0.0,0.0
567,141.5,37.9817,38.6832,158.679,99.3722,105.452,0.00523778,0.0806327,20.8988,138.628,-0.547351,0.0,0.0
576,143.75,37.9657,38.7066,154.755,99.5554,105.653,0.0051368,0.0799211,20.899,138.618,-0.547882,0.0,0.0
585,146,37.7526,38.3285,155.705,99.6717,105.909,0.00505005,0.0787865,20.9001,138.548,-0.559421,0.0,0.0
594,148.25,37.7508,38.6206,156.801,99.7764,105.629,0.00509905,0.0779816,20.9019,138.588,-0.525397,0.0,0.0
603,150.5,37.2434,38.2272,159.832,99.7752,105.714,0.00511573,0.0772922,20.9033,138.618,-0.532879,0.0,0.0
612,152.75,37.9485,38.1182,162.155,99.6979,105.801,0.00500683,0.076141,20.9047,138.548,-0.547656,0.0,0.0
621,155,37.153,38.5626,157.62,99.5997,105.523,0.00483665,0.0750925,20.9051,138.518,-0.532475,0.0,0.0
630,157.25,37.5201,38.9883,157.881,99.4708,105.672,0.0047949,0.0744035,20.9065,138.558,-0.557381,0.0,0.0
639,159.5,37.6668,38.4049,155.854,99.3114,105.507,0.00473741,0.0736858,20.9072,138.528,-0.557789,0.0,0.0
648,161.75,37.2327,38.5423,158.104,99.208,105.214,0.00471953,0.0728711,20.9075,138.438,-0.541765,0.0,0.0
657,164,37.4588,38.4682,156.414,99.3932,105.404,0.00486993,0.0721111,20.908,138.508,-0.541204,0.0,0.0
666,166.25,36.8402,38.3972,159.138,99.7152,106.001,0.0049609,0.0717851,20.9091,138.498,-0.56345,0.0,0.0
675,168.5,37.3807,38.3584,160.656,99.9359,106.191,0.0049385,0.0711517,20.9103,138.478,-0.55953,0.0,0.0
684,170.75,37.3089,38.2199,160.758,100.018,106.207,0.00474276,0.0706261,20.9107,138.398,-0.553388,0.0,0.0
693,173,37.2626,38.0509,155.463,99.9584,106.042,0.00454274,0.0706117,20.9114,138.418,-0.544539,0.0,0.0
702,175.25,37.1351,38.1766,156.689,99.7515,105.885,0.00428897,0.0703871,20.912,138.388,-0.549958,0.0,0.0
711,177.5,36.9315,38.1733,161.109,99.5264,105.531,0.00414988,0.0702737,20.9122,138.358,-0.539905,0.0,0.0
720,179.75,37.1963,38.1104,161.058,99.7277,106.046,0.00416019,0.0702316,20.9123,138.388,-0.566157,0.0,0.0
729,182,37.0634,38.0156,159.371,99.9242,106.194,0.00406968,0.0696749,20.9124,138.388,-0.560874,0.0,0.0
738,184.25,37.0448,37.9334,158.503,100.126,106.255,0.00397818,0.068842,20.9124,138.378,-0.547604,0.0,0.0
747,186.5,36.8955,38.3418,159.652,100.318,106.433,0.00387471,0.0680653,20.9148,138.308,-0.545376,0.0,0.0
756,188.75,37.1896,38.3113,153.487,100.456,106.573,0.00370329,0.0675847,20.916,138.308,-0.544852,0.0,0.0
765,191,37.043,38.1119,160.681,100.483,106.781,0.00366709,0.067611,20.9164,138.298,-0.560392,0.0,0.0
774,193.25,37.011,38.1648,157.701,100.431,106.877,0.00374737,0.068035,20.9166,138.198,-0.573369,0.0,0.0
783,195.5,36.912,37.9476,158.964,100.243,106.268,0.00367436,0.0678589,20.9167,138.268,-0.538023,0.0,0.0
792,197.75,36.951,37.8351,155.857,99.9866,106.131,0.00340511,0.0674002,20.9167,138.278,-0.549658,0.0,0.0
801,200,36.3623,37.9063,159.041,99.6895,105.743,0.00322732,0.0667648,20.9167,138.278,-0.543332,0.0,0.0
810,202.25,37.0987,38.1645,158.991,99.3336,105.292,0.00328627,0.0666068,20.918,138.248,-0.536909,0.0,0.0
819,204.5,36.773,37.9361,152.893,98.9946,105.079,0.00331876,0.0663266,20.9186,138.208,-0.549769,0.0,0.0
828,206.75,36.532,37.9105,154.602,98.7188,104.679,0.00316773,0.0659841,20.9189,138.208,-0.5403,0.0,0.0
837,209,37.1679,38.0655,156.266,98.5231,104.453,0.00308912,0.0660685,20.9186,138.128,-0.538688,0.0,0.0
846,211.25,36.5192,38.1934,156.115,98.4603,104.544,0.00307512,0.0659312,20.9185,138.188,-0.552562,0.0,0.0
855,213.5,36.6888,37.7717,154.588,98.5549,104.612,0.0029909,0.0656335,20.9186,138.188,-0.549744,0.0,0.0
861,215,37.1005,37.7389,159.961,98.6479,104.732,0.00291502,0.0654376,20.9196,138.108,-0.551643,0.0,0.0

File: Corrugated_Cardboard_Cone_HF50Scalar_250211_R1.csv
LABORATORY,FSRI
TEST IDENT,Cardboard_HF50_R1
OPERATOR,Marino
MATERIAL,Cardboard
ORIENTATION,Horizontal
HEAT FLUX,50
SURF AREA,0.01
C FACTOR,0.040382
SPEC HOLDER DIFF,-566
SPECIMEN MASS,5.92
SCAN TIME,0.25
O2 DELAY TIME,11
CO DELAY TIME,11
CO2 DELAY TIME,8
FLOW FACTOR,1
SCAN COUNT,718
TIME TO IGN,7.25
END OF TEST SCAN,238
END OF TEST TIME,59.5
TEST STATUS,1
PRE TEST CMT,Dimensions: 100.72 x 99.84 x 3.88 mm; with calcium silicate substrate; with tie wires;
POST TEST CMT,Sample charred and became ash. Sample smoldered when removed.

File: Corrugated_Cardboard_Cone_HF50Scalar_250211_R2.csv
LABORATORY,FSRI
TEST IDENT,Cardboard_HF50_R2
OPERATOR,Marino
MATERIAL,Cardboard
ORIENTATION,Horizontal
HEAT FLUX,50
SURF AREA,0.01
C FACTOR,0.040382
SPEC HOLDER DIFF,-566
SPECIMEN MASS,5.96
SCAN TIME,0.25
O2 DELAY TIME,11
CO DELAY TIME,11
CO2 DELAY TIME,8
FLOW FACTOR,1
SCAN COUNT,712
TIME TO IGN,8
END OF TEST SCAN,232
END OF TEST TIME,58
TEST STATUS,1
PRE TEST CMT,Dimensions: 100.47 x 100.88 x 3.64 mm; with calcium silicate substrate; with tie wires;
POST TEST CMT,Sample charred and became ash. Sample smoldered when removed.

File: Corrugated_Cardboard_Cone_HF50Scalar_250211_R3.csv
LABORATORY,FSRI
TEST IDENT,Cardboard_HF50_R3
OPERATOR,Marino
MATERIAL,Cardboard
ORIENTATION,Horizontal
HEAT FLUX,50
SURF AREA,0.01
C FACTOR,0.040382
SPEC HOLDER DIFF,-566
SPECIMEN MASS,6.01
SCAN TIME,0.25
O2 DELAY TIME,11
CO DELAY TIME,11
CO2 DELAY TIME,8
FLOW FACTOR,1
SCAN COUNT,710
TIME TO IGN,6.75
END OF TEST SCAN,230
END OF TEST TIME,57.5
TEST STATUS,1
PRE TEST CMT,Dimensions: 102.63 x 100.48 x 3.92 mm; with calcium silicate substrate; with tie wires;
POST TEST CMT,Sample charred and became ash. Sample smoldered when removed.

File: Corrugated_Cardboard_Cone_HF50Scan_250211_R1.csv
Names,Time,Stack TC,Smoke TC,Exh Press,Smoke Comp,Smoke Meas,CO Meter,CO2 Meter,O2 Meter,Sample Mass,Ext Coeff,Start Test,Flame Verif
Chan Gain,,500,500,1,1,1,1,1,1,1,1,1.0,1.0
Offset,,0,0,0.131183,0,0,0,0,0,0,0,0.0,0.0
Gain,,1,1,25.011,13.1923,20.2122,1,1,1,1.00092,1.05074,1.0,1.0
Units,sec,C,C,Pa,%,%,%,%,%,g,/m,,
Baseline,,41.6812,44.3065,156.128,101.266,100.927,0.000904657,0.0487114,20.9327,-435.054,0.0309615,,
8,1.75,41.2168,43.6045,151.714,100.359,100.271,0.000993923,0.0652349,20.9139,145.955,0.0080624,0.0,0.0
16,3.75,41.3497,44.2465,152.85,100.242,99.6053,0.00110213,0.0655396,20.9142,145.905,0.0587155,0.0,0.0
24,5.75,41.0431,44.1856,156.145,100.195,98.7522,0.00122124,0.0657608,20.9146,145.855,0.133663,0.0,0.0
32,7.75,41.4555,44.4169,143.704,100.202,95.5373,0.00128116,0.0660051,20.9147,145.625,0.43942,0.0,1.0
40,9.75,43.7021,51.0812,117.036,100.289,88.8731,0.00120033,0.0658685,20.9137,144.974,1.11387,0.0,1.0
48,11.75,47.4765,61.259,137.57,100.437,86.8573,0.00102437,0.0664286,20.913,144.403,1.33894,0.0,1.0
56,13.75,49.3001,66.5462,140.412,100.596,93.0614,0.000901945,0.0673997,20.9124,144.123,0.717584,0.0,0.0
64,15.75,51.0852,68.879,141.71,100.827,96.4083,0.00107166,0.0757464,20.9104,143.823,0.41307,0.0,0.0
72,17.75,52.1861,69.0161,144.794,101.055,96.7771,0.00183591,0.151354,20.8997,143.623,0.398681,0.0,0.0
80,19.75,52.5986,68.9428,143.399,101.277,97.7129,0.00315132,0.355516,20.7907,143.413,0.330238,0.0,0.0
88,21.75,52.7439,68.7424,142.237,101.51,97.8208,0.00447162,0.545869,20.4916,143.232,0.341178,0.0,0.0
96,23.75,53.086,68.8193,140.934,101.661,97.0356,0.00515501,0.585353,20.3255,143.012,0.429234,0.0,0.0
104,25.75,53.4231,68.3429,140.789,101.793,95.76,0.00496248,0.535497,20.2858,142.792,0.563092,0.0,0.0
112,27.75,54.4271,69.9285,137.631,101.849,94.7971,0.00427,0.448366,20.3609,142.462,0.661376,0.0,0.0
120,29.75,56.2022,72.4231,133.819,101.899,93.4777,0.00366357,0.383237,20.4689,142.111,0.795005,0.0,0.0
128,31.75,57.0569,74.669,140.515,101.883,91.679,0.00321768,0.347913,20.5431,141.691,0.972663,0.0,0.0
136,33.75,58.1086,76.1217,136.118,101.804,93.0755,0.00296597,0.336754,20.5791,141.431,0.826219,0.0,0.0
144,35.75,58.5423,76.3722,145.742,101.707,95.6835,0.00296041,0.350564,20.5911,141.23,0.56269,0.0,0.0
152,37.75,58.4882,74.9879,146.091,101.575,97.7653,0.00304386,0.393295,20.5691,141.12,0.352367,0.0,0.0
160,39.75,58.3448,72.4778,148.913,101.403,98.4864,0.00320728,0.445368,20.5201,141.03,0.269024,0.0,0.0
168,41.75,57.6434,69.9802,153.727,101.253,99.5399,0.00339266,0.485598,20.4524,140.97,0.157254,0.0,0.0
176,43.75,56.4328,67.0788,150.757,101.124,99.1451,0.00338906,0.486727,20.4192,140.9,0.182182,0.0,0.0
184,45.75,56.1149,64.4694,155.499,100.988,98.965,0.00323112,0.445263,20.4223,140.9,0.186494,0.0,0.0
192,47.75,55.0934,61.9972,151.683,100.855,99.5146,0.00311818,0.38116,20.4647,140.87,0.123279,0.0,0.0
200,49.75,54.4033,60.1858,151.942,101.015,99.0588,0.00322364,0.315758,20.5383,140.82,0.180228,0.0,0.0
208,51.75,53.5418,58.5471,158.431,101.124,100.075,0.00372678,0.25688,20.6189,140.77,0.0960385,0.0,0.0
216,53.75,52.9528,57.0155,152.303,101.215,99.5387,0.004655,0.209891,20.6916,140.77,0.153923,0.0,0.0
224,55.75,52.2782,56.091,152.482,101.245,99.3561,0.00578228,0.175589,20.746,140.75,0.17363,0.0,0.0
232,57.75,51.811,54.5647,151.833,101.181,100.352,0.00678525,0.152881,20.7859,140.73,0.0758121,0.0,0.0
240,59.75,51.4258,53.5209,155.367,101.088,99.4683,0.00755143,0.138589,20.8111,140.73,0.14888,0.0,0.0
248,61.75,49.0298,51.302,153.229,100.948,100.019,0.00807192,0.129202,20.8253,140.74,0.0851966,0.0,0.0
256,63.75,48.65,50.4046,150.738,100.814,98.8423,0.0083942,0.122455,20.8347,140.7,0.182045,0.0,0.0
264,65.75,48.4929,50.2703,153.375,100.667,99.7872,0.00845346,0.117918,20.8421,140.68,0.0808639,0.0,0.0
272,67.75,48.2038,49.637,150.554,100.578,98.9305,0.00835151,0.114417,20.8465,140.67,0.152192,0.0,0.0
280,69.75,47.3331,49.4873,156.214,100.661,99.6164,0.00822215,0.111716,20.8507,140.63,0.096181,0.0,0.0
288,71.75,47.3936,49.1998,152.525,100.755,98.6424,0.00808325,0.10961,20.854,140.66,0.195325,0.0,0.0
296,73.75,46.9246,48.3834,152.867,100.908,99.2845,0.00779943,0.108014,20.8571,140.61,0.149469,0.0,0.0
304,75.75,46.6607,47.9757,150.798,101.045,99.8218,0.0074363,0.106776,20.8598,140.6,0.112259,0.0,0.0
312,77.75,46.4088,48.1026,150.653,101.155,99.1747,0.00706604,0.105219,20.861,140.62,0.182219,0.0,0.0
320,79.75,46.226,48.1544,156.354,101.248,99.852,0.00662519,0.103313,20.8631,140.57,0.127922,0.0,0.0
328,81.75,45.8021,47.7177,150.001,101.335,100.294,0.00632973,0.101199,20.865,140.57,0.0951751,0.0,0.0
336,83.75,46.1783,47.8259,149.547,101.387,99.733,0.00612137,0.0991321,20.868,140.51,0.151589,0.0,0.0
344,85.75,45.8958,47.6972,151.907,101.421,99.9698,0.00596904,0.0977687,20.8698,140.51,0.132872,0.0,0.0
352,87.75,45.1767,47.1912,156.728,101.435,99.7946,0.00587158,0.096651,20.8713,140.52,0.150246,0.0,0.0
360,89.75,45.7728,46.7612,153.464,101.412,99.031,0.00576528,0.095168,20.8728,140.51,0.21896,0.0,0.0
368,91.75,45.6539,46.7041,154.327,101.371,99.6824,0.00563207,0.0931672,20.8748,140.51,0.154801,0.0,0.0
376,93.75,45.5495,47.0314,151.13,101.295,100.258,0.00550653,0.0913111,20.8781,140.42,0.0948935,0.0,0.0
384,95.75,44.7455,46.7985,150.467,101.22,101.065,0.00534987,0.0894715,20.8803,140.37,0.0141092,0.0,0.0
392,97.75,45.3303,47.0666,150.524,101.162,99.2895,0.0051915,0.087724,20.883,140.36,0.172222,0.0,0.0
400,99.75,45.1369,46.9726,154.179,101.076,99.2167,0.0051868,0.0870225,20.885,140.34,0.171128,0.0,0.0
408,101.75,44.9155,46.6133,153.314,100.971,99.7441,0.00535443,0.0882902,20.886,140.33,0.112642,0.0,0.0
416,103.75,45.0424,46.5565,145.968,100.873,99.6953,0.00560841,0.0892435,20.8853,140.31,0.108211,0.0,0.0
424,105.75,44.7911,46.468,151.192,100.761,100.511,0.00574621,0.0886361,20.8848,140.3,0.0228761,0.0,0.0
432,107.75,44.5944,46.1889,156.418,100.628,99.8341,0.00572591,0.0872376,20.886,140.28,0.0729957,0.0,0.0
440,109.75,44.9237,46.4425,151.571,100.517,99.4579,0.00567343,0.0854127,20.8873,140.26,0.0976162,0.0,0.0
448,111.75,44.5179,46.5518,152.246,100.407,99.5744,0.00563748,0.0835367,20.8891,140.24,0.0767721,0.0,0.0
456,113.75,44.7038,45.9791,157.868,100.293,99.4332,0.00566826,0.0815945,20.8917,140.23,0.0793542,0.0,0.0
464,115.75,44.3832,46.4415,156.453,100.235,99.6534,0.00572959,0.0800039,20.8937,140.22,0.053598,0.0,0.0
472,117.75,44.4324,46.5087,153.895,100.177,98.4857,0.00569439,0.0783782,20.8946,140.21,0.156937,0.0,0.0
480,119.75,44.6172,46.2644,149.322,100.156,99.3326,0.00552113,0.0771424,20.8964,140.18,0.0760911,0.0,0.0
488,121.75,44.3493,46.4829,154.264,100.175,99.0878,0.00516322,0.076123,20.8984,140.18,0.100545,0.0,0.0
496,123.75,44.1774,45.8705,149.218,100.2,99.5337,0.00480486,0.0754426,20.8992,140.19,0.0614882,0.0,0.0
504,125.75,44.2547,45.8318,152.127,100.24,98.619,0.00470392,0.0746277,20.9006,140.18,0.150253,0.0,0.0
512,127.75,44.2671,46.2008,154.172,100.313,99.9575,0.0047771,0.0740105,20.9014,140.19,0.0327307,0.0,0.0
520,129.75,43.9209,46.7159,152.167,100.411,99.8199,0.00482451,0.0734828,20.9019,140.21,0.0543714,0.0,0.0
528,131.75,44.3366,46.5169,153.656,100.548,100.33,0.00469364,0.0729556,20.9021,140.19,0.0199822,0.0,0.0
536,133.75,43.9633,46.3775,154.746,100.68,99.0526,0.00454033,0.0722877,20.9024,140.18,0.150224,0.0,0.0
544,135.75,44.2408,46.5883,154.146,100.807,99.712,0.00445625,0.0716961,20.9036,140.18,0.100637,0.0,0.0
552,137.75,44.2919,46.716,149.144,100.928,100.385,0.00432289,0.0712745,20.9047,140.16,0.0497127,0.0,0.0
560,139.75,44.0545,46.425,154.279,101.088,100.106,0.00410951,0.0708287,20.9058,140.16,0.0900256,0.0,0.0
568,141.75,44.0282,46.2167,149.343,101.212,100.052,0.00391039,0.070399,20.9048,140.129,0.10623,0.0,0.0
576,143.75,43.7944,46.8649,152.285,101.361,101.17,0.00372847,0.0697829,20.9051,140.129,0.0173922,0.0,0.0
584,145.75,43.8535,46.5944,155.263,101.481,101.162,0.00360096,0.0690136,20.9074,140.119,0.0290261,0.0,0.0
592,147.75,43.8369,46.107,151.43,101.607,100.849,0.00358467,0.0684862,20.9099,140.099,0.0689823,0.0,0.0
600,149.75,43.8421,46.4131,150.296,101.709,101.899,0.00359775,0.0679982,20.911,140.119,-0.0171433,0.0,0.0
608,151.75,43.9021,46.4641,154.164,101.794,99.7293,0.00352482,0.0675396,20.9114,140.099,0.188896,0.0,0.0
616,153.75,43.9533,46.014,151.837,101.863,101.04,0.00348803,0.0674404,20.9116,140.089,0.0748138,0.0,0.0
624,155.75,44.3635,46.7211,152.013,101.87,101.311,0.00349305,0.0673236,20.9117,140.069,0.0507082,0.0,0.0
632,157.75,43.6188,46.3212,153.778,101.898,101.123,0.0035238,0.0670005,20.9117,140.049,0.0703159,0.0,0.0
640,159.75,44.1597,46.4772,152.516,101.896,99.7003,0.00358936,0.0667932,20.9118,140.049,0.200831,0.0,0.0
648,161.75,43.8009,46.2983,151.801,101.859,101.646,0.00354896,0.0664156,20.9118,140.009,0.019286,0.0,0.0
656,163.75,44.0652,46.3843,152.726,101.785,101.35,0.00335704,0.0659854,20.9118,139.979,0.0395043,0.0,0.0
664,165.75,43.8757,46.5038,154.88,101.708,100.38,0.00315081,0.0654495,20.9118,139.959,0.121108,0.0,0.0
672,167.75,44.3859,47.0067,158.646,101.609,100.849,0.00294139,0.0649564,20.9129,139.929,0.0692571,0.0,0.0
680,169.75,44.3549,46.6962,152.662,101.499,101.014,0.00287971,0.0647035,20.9146,139.939,0.0441135,0.0,0.0
688,171.75,43.9502,46.4459,153.032,101.382,100.78,0.00295642,0.0642916,20.9156,139.919,0.0549175,0.0,0.0
696,173.75,43.9793,46.6569,147.367,101.262,100.268,0.00298074,0.0639731,20.9163,139.899,0.0908514,0.0,0.0
704,175.75,43.9407,46.6515,150.989,101.138,100.25,0.00291408,0.0638795,20.9167,139.889,0.0812963,0.0,0.0
712,177.75,44.174,46.7143,151.473,101.028,100.226,0.0027922,0.0636643,20.9174,139.879,0.0735233,0.0,0.0
718,179.25,43.87,46.4141,155.216,100.945,100.954,0.00270864,0.0634045,20.9183,139.959,-0.000832341,0.0,0.0