Folder: fsri_materials_database/01_Data/Corrugated_Cardboard/Cone

File: Corrugated_Cardboard_Cone_HF25Scalar_250211_R1.csv
LABORATORY,FSRI
TEST IDENT,Cardboard_HF25_R1
OPERATOR,Marino
MATERIAL,Cardboard
ORIENTATION,Horizontal
HEAT FLUX,25
SURF AREA,0.01
C FACTOR,0.040382
SPEC HOLDER DIFF,-566
SPECIMEN MASS,5.93
SCAN TIME,0.25
O2 DELAY TIME,11
CO DELAY TIME,11
CO2 DELAY TIME,8
FLOW FACTOR,1
SCAN COUNT,871
TIME TO IGN,30.5
END OF TEST SCAN,391
END OF TEST TIME,97.75
TEST STATUS,1
PRE TEST CMT,Dimensions: 101.75 x 99.57 x 3.85 mm; with calcium silicate substrate; with tie wires;
POST TEST CMT,Sample charred and became ash.

File: Corrugated_Cardboard_Cone_HF25Scalar_250211_R2.csv
LABORATORY,FSRI
TEST IDENT,Cardboard_HF25_R2
OPERATOR,Marino
MATERIAL,Cardboard
ORIENTATION,Horizontal
HEAT FLUX,25
SURF AREA,0.01
C FACTOR,0.040382
SPEC HOLDER DIFF,-566
SPECIMEN MASS,5.95
SCAN TIME,0.25
O2 DELAY TIME,11
CO DELAY TIME,11
CO2 DELAY TIME,8
FLOW FACTOR,1
SCAN COUNT,903
TIME TO IGN,32.5
END OF TEST SCAN,423
END OF TEST TIME,105.75
TEST STATUS,1
PRE TEST CMT,Dimensions: 100.61 x 100.77 x 3.93 mm; with calcium silicate substrate; with tie wires;
POST TEST CMT,Sample charred and became ash. Smoldered after removal.

File: Corrugated_Cardboard_Cone_HF25Scalar_250211_R3.csv
LABORATORY,FSRI
TEST IDENT,Cardboard_HF25_R3
OPERATOR,Marino
MATERIAL,Cardboard
ORIENTATION,Horizontal
HEAT FLUX,25
SURF AREA,0.01
C FACTOR,0.040382
SPEC HOLDER DIFF,-566
SPECIMEN MASS,5.9
SCAN TIME,0.25
O2 DELAY TIME,11
CO DELAY TIME,11
CO2 DELAY TIME,8
FLOW FACTOR,1
SCAN COUNT,861
TIME TO IGN,30
END OF TEST SCAN,381
END OF TEST TIME,95.25
TEST STATUS,1
PRE TEST CMT,Dimensions: 100.13 x 100.66 x 3.71 mm; with calcium silicate substrate; with tie wires;
POST TEST CMT,Sample charred and became ash. Sample smoldered when removed.

File: Corrugated_Cardboard_Cone_HF25Scan_250211_R1.csv
Names,Time,Stack TC,Smoke TC,Exh Press,Smoke Comp,Smoke Meas,CO Meter,CO2 Meter,O2 Meter,Sample Mass,Ext Coeff,Start Test,Flame Verif
Chan Gain,,500,500,1,1,1,1,1,1,1,1,1.0,1.0
Offset,,0,0,0.131183,0,0,0,0,0,0,0,0.0,0.0
Gain,,1,1,25.011,13.1923,20.2122,1,1,1,1.00092,1.05074,1.0,1.0
Units,sec,C,C,Pa,%,%,%,%,%,g,/m,,
Baseline,,33.1917,33.8955,163.301,99.5654,105.52,0.000716413,0.0442519,20.9433,-434.338,-0.535365,,
9,2,32.1852,33.7208,167.829,100.301,106.027,0.000608031,0.0491847,20.9387,135.685,-0.511678,0.0,0.0
18,4.25,32.5505,33.798,161.837,100.342,105.975,0.000567806,0.0527062,20.9332,135.685,-0.503421,0.0,0.0
27,6.5,32.6117,33.4845,160.909,100.346,105.996,0.000526763,0.0566585,20.9282,135.625,-0.504801,0.0,0.0
36,8.75,32.5009,33.5124,162.694,100.347,105.939,0.000533966,0.058669,20.925,135.575,-0.499844,0.0,0.0
45,11,32.5416,33.6657,167.22,100.352,106.059,0.00064034,0.0600306,20.924,135.605,-0.509806,0.0,0.0
54,13.25,32.8194,33.4607,166.31,100.357,106.038,0.000695116,0.0605814,20.9236,135.585,-0.507522,0.0,0.0
63,15.5,33.0144,33.6677,164.346,100.351,105.912,0.000670437,0.0604052,20.9235,135.545,-0.49715,0.0,0.0
72,17.75,32.9908,33.9228,160.174,100.371,105.76,0.00056646,0.0603817,20.9237,135.555,-0.481996,0.0,0.0
81,20,32.5891,34.0131,163.156,100.338,105.456,0.000603503,0.0603719,20.9242,135.525,-0.458488,0.0,0.0
90,22.25,32.6468,33.7495,162.906,100.343,105.32,0.000806728,0.0613256,20.9227,135.495,-0.446158,0.0,0.0
99,24.5,32.6704,33.9999,162.666,100.31,104.594,0.000865319,0.0610545,20.9215,135.415,-0.38549,0.0,0.0
108,26.75,32.9505,34.2067,168.046,100.303,103.702,0.000773289,0.059289,20.9234,135.405,-0.30722,0.0,0.0
117,29,33.0718,34.0859,161.248,100.289,103.848,0.000799309,0.0570236,20.9255,135.385,-0.321408,0.0,0.0
126,31.25,32.8177,34.8821,147.88,100.235,102.395,0.00117282,0.0555135,20.9282,135.145,-0.196436,0.0,1.0
135,33.5,35.071,39.7451,141.104,100.221,98.5209,0.00157568,0.054753,20.9307,134.654,0.157721,0.0,1.0
144,35.75,36.3265,44.9294,145.571,100.197,99.7465,0.00193457,0.0551579,20.9303,134.284,0.0415445,0.0,0.0
153,38,38.2516,49.171,145.122,100.164,102.048,0.00246243,0.0581071,20.9273,133.934,-0.171734,0.0,0.0
162,40.25,40.1031,51.3136,149.898,100.12,102.633,0.00309525,0.0810923,20.9222,133.674,-0.228493,0.0,0.0
171,42.5,40.4945,52.7557,155.388,100.07,103.766,0.00327738,0.156673,20.8877,133.493,-0.334291,0.0,0.0
180,44.75,41.6242,52.1754,153.944,100.03,104.024,0.00315398,0.301479,20.7717,133.363,-0.360819,0.0,0.0
189,47,41.6454,51.684,153.357,99.958,104.581,0.00309526,0.37934,20.619,133.153,-0.416737,0.0,0.0
198,49.25,41.5046,50.9734,163.821,99.8747,104.425,0.00304101,0.393099,20.5532,133.063,-0.410606,0.0,0.0
207,51.5,41.8124,50.5608,156.301,99.8445,104.18,0.00289745,0.365949,20.5492,132.923,-0.391754,0.0,0.0
216,53.75,41.7799,50.3751,156.15,99.7821,104.157,0.00271077,0.322565,20.5932,132.773,-0.395551,0.0,0.0
225,56,41.9435,50.5982,156.759,99.7084,103.525,0.00259324,0.282856,20.6414,132.542,-0.34624,0.0,0.0
234,58.25,42.9966,50.4249,154.197,99.6605,103.173,0.00252621,0.253563,20.6822,132.442,-0.319259,0.0,0.0
243,60.5,42.578,50.7736,151.945,99.6126,103.126,0.00273383,0.236532,20.7113,132.212,-0.319447,0.0,0.0
252,62.75,42.8694,50.7944,153.797,99.5618,103.76,0.0031286,0.23013,20.7252,132.102,-0.380642,0.0,0.0
261,65,43.213,50.296,154.64,99.5763,103.238,0.00333261,0.231082,20.73,132.002,-0.332883,0.0,0.0
270,67.25,42.7204,50.2925,151.955,99.6903,103.214,0.00313475,0.238165,20.7288,131.852,-0.320195,0.0,0.0
279,69.5,43.4184,50.2752,156.083,99.8106,103.583,0.00292363,0.245641,20.7195,131.712,-0.341898,0.0,0.0
288,71.75,43.4048,49.7415,152.216,99.8735,104.172,0.00288433,0.245221,20.7146,131.502,-0.388423,0.0,0.0
297,74,43.366,49.5596,158.559,99.9652,104.408,0.00288912,0.238228,20.7187,131.441,-0.40078,0.0,0.0
306,76.25,43.2628,48.9482,154.751,99.987,104.938,0.00285222,0.231306,20.7283,131.371,-0.445487,0.0,0.0
315,78.5,43.2998,47.6827,154.265,99.9906,104.782,0.00278723,0.22657,20.7344,131.231,-0.431382,0.0,0.0
324,80.75,42.2438,46.9635,161.713,99.9632,104.859,0.00283142,0.220095,20.7404,131.201,-0.440739,0.0,0.0
333,83,41.87,45.4748,163.889,99.9459,105.174,0.003183,0.211766,20.7462,131.141,-0.469945,0.0,0.0
342,85.25,41.4918,44.6911,156.335,99.8602,104.943,0.00392952,0.200902,20.7554,131.051,-0.457564,0.0,0.0
351,87.5,40.9927,43.2569,160.931,99.7313,105.025,0.00517736,0.186841,20.7694,130.961,-0.476719,0.0,0.0
360,89.75,40.5084,42.6573,162.089,99.5707,104.872,0.00643608,0.169419,20.7861,130.971,-0.478088,0.0,0.0
369,92,40.7825,41.9404,158.109,99.3807,104.523,0.00769868,0.151397,20.8043,130.911,-0.46496,0.0,0.0
378,94.25,39.694,41.2612,160.54,99.1468,104.102,0.00841989,0.137717,20.8224,130.831,-0.449509,0.0,0.0
387,96.5,39.641,40.8953,159.463,99.1729,104.507,0.00897427,0.127138,20.8377,130.811,-0.482833,0.0,0.0
396,98.75,38.2601,38.7794,158.835,99.2152,104.354,0.00952159,0.120413,20.8483,130.771,-0.465457,0.0,0.0
405,101,37.7479,38.063,158.668,99.2849,104.525,0.00990697,0.115971,20.8549,130.721,-0.474068,0.0,0.0
414,103.25,37.6073,37.5936,159.328,99.3807,104.948,0.0101037,0.112383,20.8587,130.641,-0.50236,0.0,0.0
423,105.5,37.3564,36.9123,163.02,99.4572,104.89,0.0102672,0.108448,20.8606,130.681,-0.490175,0.0,0.0
432,107.75,36.983,36.4402,159.617,99.5385,105.147,0.0103406,0.104068,20.8658,130.661,-0.505271,0.0,0.0
441,110,36.7192,36.4751,158.564,99.5816,105.055,0.0102268,0.100422,20.8713,130.591,-0.493168,0.0,0.0
450,112.25,36.2471,36.144,159.155,99.6842,105.173,0.00982497,0.0991269,20.8745,130.571,-0.494002,0.0,0.0
459,114.5,36.1379,35.9225,160.066,99.7539,105.368,0.00909547,0.0985577,20.8768,130.571,-0.504631,0.0,0.0
468,116.75,35.9102,35.6401,156.91,99.7857,105.386,0.00860552,0.0970069,20.8782,130.521,-0.503311,0.0,0.0
477,119,35.667,35.4985,161.095,99.7474,105.122,0.00828094,0.0944915,20.8813,130.451,-0.483726,0.0,0.0
486,121.25,35.858,35.3799,156.933,99.7523,105.086,0.00788395,0.092112,20.8843,130.511,-0.480142,0.0,0.0
495,123.5,35.612,34.9516,161.483,99.6629,105.013,0.00750215,0.0903459,20.8876,130.501,-0.481963,0.0,0.0
504,125.75,35.2117,35.5016,160.481,99.5566,105.047,0.00724714,0.0889842,20.8889,130.481,-0.494776,0.0,0.0
513,128,35.3038,35.3372,162.94,99.4314,105.027,0.00692745,0.0877938,20.8907,130.35,-0.504642,0.0,0.0
522,130.25,34.8532,34.8214,160.776,99.3046,104.703,0.00649561,0.08678,20.8916,130.421,-0.487942,0.0,0.0
531,132.5,34.3803,35.2566,157.915,99.1254,104.595,0.00613964,0.0856153,20.8925,130.37,-0.495025,0.0,0.0
540,134.75,34.6231,35.018,158.394,98.9805,104.377,0.00590959,0.0848293,20.8937,130.26,-0.489303,0.0,0.0
549,137,35.5647,34.4182,161.497,98.8352,104.372,0.00574781,0.0845632,20.8941,130.33,-0.502411,0.0,0.0
558,139.25,34.5297,34.6892,167.006,98.7059,103.897,0.00565105,0.0845364,20.8943,130.33,-0.472378,0.0,0.0
567,141.5,34.4989,34.8164,160.793,98.5827,104.118,0.00557573,0.0842552,20.8953,130.32,-0.503512,0.0,0.0
576,143.75,34.81,34.6308,165.768,98.4905,103.993,0.00542009,0.083616,20.8961,130.26,-0.5011,0.0,0.0
585,146,34.4537,34.8911,162.58,98.4354,103.985,0.00535346,0.0823298,20.8975,130.28,-0.505552,0.0,0.0
594,148.25,33.9524,34.782,164.03,98.4547,103.957,0.00531326,0.0810186,20.8992,130.27,-0.501227,0.0,0.0
603,150.5,34.0408,34.4054,158.765,98.4752,103.997,0.00524545,0.0801311,20.9006,130.19,-0.50286,0.0,0.0
612,152.75,34.3891,34.5562,161.776,98.59,104.065,0.00534096,0.0789968,20.902,130.22,-0.498138,0.0,0.0
621,155,34.5638,34.2478,154.94,98.7333,104.292,0.00531374,0.0781633,20.903,130.2,-0.504831,0.0,0.0
630,157.25,33.8681,34.6749,154.115,98.9108,104.316,0.00514176,0.0774743,20.9034,130.19,-0.490397,0.0,0.0
639,159.5,34.1503,34.3783,163.159,99.0924,104.674,0.00492604,0.0767573,20.9041,130.11,-0.505104,0.0,0.0
648,161.75,33.8716,34.5114,156.745,99.332,104.941,0.00472909,0.076192,20.9045,130.18,-0.506337,0.0,0.0
657,164,34.1527,34.5797,161.488,99.5353,104.984,0.00470573,0.0756603,20.9046,130.15,-0.491229,0.0,0.0
666,166.25,34.1038,34.4016,156.947,99.7354,105.347,0.00473267,0.0751625,20.9047,130.09,-0.504507,0.0,0.0
675,168.5,33.7319,34.2046,162.439,99.9447,105.601,0.00460497,0.0746248,20.905,130.11,-0.507441,0.0,0.0
684,170.75,33.68,34.8712,165.973,100.138,105.683,0.00440643,0.0737629,20.9057,130.12,-0.496741,0.0,0.0
693,173,33.5817,34.489,163.605,100.272,105.891,0.00437425,0.0730186,20.906,130.1,-0.502612,0.0,0.0
702,175.25,34.2825,34.3615,164.163,100.358,106.051,0.00429749,0.0719696,20.9072,130,-0.508537,0.0,0.0
711,177.5,33.6654,34.5726,155.55,100.443,105.869,0.00406347,0.0711638,20.908,130.07,-0.484928,0.0,0.0
720,179.75,33.8931,34.2973,160.362,100.461,106.028,0.00383124,0.0709221,20.9087,130.05,-0.497056,0.0,0.0
729,182,33.5526,34.4963,163.339,100.439,106.032,0.00371493,0.0706449,20.9096,129.96,-0.499426,0.0,0.0
738,184.25,33.6913,34.3842,164.013,100.392,105.98,0.00371114,0.0700287,20.912,129.99,-0.499191,0.0,0.0
747,186.5,33.4936,34.5347,163.465,100.304,105.928,0.00369772,0.0692109,20.9137,130.01,-0.502819,0.0,0.0
756,188.75,33.4523,34.3156,164.736,100.16,105.709,0.00371794,0.068449,20.9151,129.99,-0.497,0.0,0.0
765,191,33.6861,34.6252,159.333,100.022,105.735,0.0037689,0.0680423,20.9156,129.92,-0.511954,0.0,0.0
774,193.25,33.6292,34.5562,159.131,99.8803,105.353,0.00372785,0.0675151,20.9158,129.99,-0.491662,0.0,0.0
783,195.5,33.5758,34.8734,164.507,99.7237,105.333,0.00357047,0.0669069,20.9165,129.95,-0.504398,0.0,0.0
792,197.75,33.8525,34.3463,164.649,99.6057,105.253,0.00327333,0.0662172,20.9176,129.89,-0.508288,0.0,0.0
801,200,33.7387,34.5289,158.334,99.5421,105.136,0.00308804,0.065776,20.918,129.93,-0.503907,0.0,0.0
810,202.25,33.3976,34.0984,161.015,99.6327,105.224,0.00305297,0.0655309,20.9194,129.93,-0.503253,0.0,0.0
819,204.5,33.7718,34.3934,160.363,99.8143,105.38,0.00304128,0.06535,20.9202,129.92,-0.50013,0.0,0.0
828,206.75,33.2299,34.0797,163.895,99.9153,105.536,0.00290483,0.0650633,20.9208,129.81,-0.504444,0.0,0.0
837,209,33.5354,33.9276,155.102,99.9781,105.783,0.00280263,0.0646024,20.9211,129.92,-0.520175,0.0,0.0
846,211.25,33.6779,34.3603,159.861,100.007,105.651,0.00294358,0.0643242,20.9214,129.89,-0.506086,0.0,0.0
855,213.5,33.512,34.345,157.625,99.925,105.643,0.0030968,0.0639809,20.9227,129.8,-0.512868,0.0,0.0
864,215.75,33.5702,34.0171,161.451,99.8296,105.436,0.00307981,0.0638231,20.9232,129.83,-0.503573,0.0,0.0
871,217.5,33.5484,34.6091,166.942,99.6673,105.307,0.00300075,0.063599,20.9234,129.76,-0.507342,0.0,0.0

File: Corrugated_Cardboard_Cone_HF25Scan_250211_R2.csv
Names,Time,Stack TC,Smoke TC,Exh Press,Smoke Comp,Smoke Meas,CO Meter,CO2 Meter,O2 Meter,Sample Mass,Ext Coeff,Start Test,Flame Verif
Chan Gain,,500,500,1,1,1,1,1,1,1,1,1.0,1.0
Offset,,0,0,0.131183,0,0,0,0,0,0,0,0.0,0.0
Gain,,1,1,25.011,13.1923,20.2122,1,1,1,1.00092,1.05074,1.0,1.0
Units,sec,C,C,Pa,%,%,%,%,%,g,/m,,
Baseline,,34.3863,35.4506,161.138,100.002,105.983,0.000579399,0.0427604,20.9448,-434.453,-0.535412,,
10,2.25,34.9702,36.5317,159.28,100.418,106.764,0.000392146,0.0414598,20.9496,145.935,-0.564848,0.0,0.0
20,4.75,35.3773,36.5174,154.266,100.467,106.828,0.000497652,0.041939,20.949,145.885,-0.56584,0.0,0.0
30,7.25,35.4572,36.772,164.101,100.446,106.744,0.000513604,0.042725,20.9473,145.554,-0.560594,0.0,0.0
40,9.75,35.1863,36.7157,157.64,100.402,106.55,0.000425893,0.0434835,20.9469,145.905,-0.547793,0.0,0.0
50,12.25,34.9296,36.4365,158.317,100.31,106.456,0.000340469,0.0435853,20.9457,145.775,-0.548147,0.0,0.0
60,14.75,35.6463,37.0491,153.92,100.206,106.424,0.000473812,0.0435774,20.9447,145.875,-0.554881,0.0,0.0
70,17.25,35.4594,36.8851,153.263,100.068,106.118,0.00064774,0.0436547,20.9441,145.745,-0.541093,0.0,0.0
80,19.75,35.4463,36.3828,156.533,99.89,105.678,0.000605597,0.0435377,20.9439,145.765,-0.519166,0.0,0.0
90,22.25,35.1915,36.8546,164.399,99.737,105.067,0.000582018,0.043295,20.9442,145.735,-0.479824,0.0,0.0
100,24.75,35.8259,36.3929,160.571,99.5634,104.073,0.000566199,0.0428921,20.9454,145.735,-0.408286,0.0,0.0
110,27.25,35.0989,36.9992,159.209,99.367,103.637,0.000654198,0.0427863,20.9458,145.715,-0.387788,0.0,0.0
120,29.75,35.6093,37.5179,156.681,99.1854,102.561,0.000881715,0.0427948,20.946,145.524,-0.308419,0.0,0.0
130,32.25,35.0896,37.2298,157.976,99.0207,103.657,0.0012978,0.0430502,20.9454,145.134,-0.421771,0.0,1.0
140,34.75,36.265,40.9687,139.13,98.8585,100.521,0.00185809,0.0437848,20.945,144.864,-0.153737,0.0,1.0
150,37.25,38.8852,47.955,137.507,98.6922,101.057,0.00259538,0.0447601,20.9441,144.534,-0.218215,0.0,1.0
160,39.75,40.8377,52.5661,142.125,98.5735,102.16,0.00348784,0.0464319,20.9433,144.163,-0.329414,0.0,1.0
170,42.25,42.2045,54.543,148.676,98.4527,103.205,0.00422171,0.0747566,20.9395,144.013,-0.434508,0.0,0.0
180,44.75,42.8114,54.2599,145.773,98.3762,103.486,0.00415578,0.197245,20.88,143.723,-0.466757,0.0,0.0
190,47.25,43.2095,53.7011,148.033,98.3665,103.637,0.003682,0.329739,20.7063,143.673,-0.481112,0.0,0.0
200,49.75,43.2999,53.5982,149.194,98.3774,103.969,0.00314138,0.364907,20.6081,143.423,-0.50956,0.0,0.0
210,52.25,43.678,52.2516,157.823,98.4603,104.413,0.00269336,0.33773,20.5879,143.282,-0.54108,0.0,0.0
220,54.75,43.5679,51.6347,148.508,98.5489,104.311,0.00245656,0.294665,20.6243,143.122,-0.52375,0.0,0.0
230,57.25,43.2103,50.3684,151.865,98.6898,104.596,0.00243475,0.261735,20.6662,143.072,-0.535727,0.0,0.0
240,59.75,42.9499,50.1282,153.035,98.8823,104.496,0.00272845,0.234751,20.6992,142.952,-0.508962,0.0,0.0
250,62.25,43.3841,49.8395,153.146,99.0554,104.565,0.00325552,0.21455,20.7326,142.772,-0.498876,0.0,0.0
260,64.75,43.3675,50.0943,148.566,99.2418,104.999,0.00362343,0.199566,20.7549,142.672,-0.519746,0.0,0.0
270,67.25,44.2607,50.6856,145.951,99.4012,104.498,0.00399976,0.189376,20.77,142.392,-0.46088,0.0,0.0
280,69.75,44.1796,52.0617,145.098,99.5288,103.789,0.00450815,0.183941,20.7804,142.201,-0.386274,0.0,0.0
290,72.25,45.1543,53.2179,149.682,99.6315,104.305,0.00485097,0.185294,20.7843,141.881,-0.422506,0.0,0.0
300,74.75,46.0482,54.1544,148.592,99.7358,104.583,0.00454823,0.197674,20.7805,141.791,-0.437414,0.0,0.0
310,77.25,46.029,54.8366,153.764,99.7515,104.434,0.0038213,0.218558,20.764,141.521,-0.422853,0.0,0.0
320,79.75,46.2065,54.5,150.023,99.7317,104.616,0.00317081,0.244045,20.7429,141.481,-0.440722,0.0,0.0
330,82.25,46.4077,53.8889,151.529,99.6508,104.927,0.00295094,0.261324,20.7121,141.291,-0.475498,0.0,0.0
340,84.75,45.9842,52.5609,156.237,99.5916,105.677,0.00301721,0.26725,20.6954,141.09,-0.546627,0.0,0.0
350,87.25,45.1621,50.6758,161.111,99.5002,105.53,0.00334453,0.260954,20.6917,140.94,-0.542275,0.0,0.0
360,89.75,44.6902,49.2917,158.778,99.394,105.574,0.00390752,0.243919,20.7014,141.08,-0.556004,0.0,0.0
370,92.25,44.6535,47.7096,152.855,99.3158,105.481,0.00483989,0.218244,20.7239,141.06,-0.555061,0.0,0.0
380,94.75,43.5982,46.252,157.325,99.2623,105.334,0.00617903,0.18741,20.7551,141.05,-0.547248,0.0,0.0
390,97.25,42.8661,44.6283,161.838,99.214,105.602,0.00744294,0.157209,20.7942,141,-0.57513,0.0,0.0
400,99.75,42.6451,43.824,156.474,99.5019,105.844,0.00847101,0.13338,20.8216,140.8,-0.569561,0.0,0.0
410,102.25,42.0025,43.2032,161.554,99.7672,105.946,0.00885447,0.117517,20.8443,140.98,-0.553876,0.0,0.0
420,104.75,42.2251,42.8973,158.826,99.9093,106.34,0.00877139,0.108399,20.8604,140.9,-0.574982,0.0,0.0
430,107.25,40.0368,40.9543,157.055,100.006,106.335,0.00861746,0.102068,20.8697,140.9,-0.565608,0.0,0.0
440,109.75,40.1714,40.5992,158.058,100.002,106.447,0.00835678,0.0981047,20.8753,140.77,-0.575688,0.0,0.0
450,112.25,39.5296,40.0197,157.836,99.9491,106.31,0.00803056,0.0961017,20.8782,140.78,-0.568633,0.0,0.0
460,114.75,39.3882,39.5592,152.842,99.8356,106.319,0.0077467,0.0945789,20.8792,140.71,-0.579964,0.0,0.0
470,117.25,39.3402,39.2388,158.985,99.6367,105.888,0.00751556,0.0926029,20.8817,140.72,-0.560889,0.0,0.0
480,119.75,38.5965,39.0915,158.849,99.5634,105.844,0.0070204,0.0913591,20.8851,140.7,-0.563803,0.0,0.0
490,122.25,39.1072,39.2313,156.617,99.677,105.745,0.00655523,0.0900165,20.8875,140.68,-0.5447,0.0,0.0
500,124.75,38.2952,38.5042,153.917,99.8497,106.067,0.0062898,0.0891265,20.8894,140.64,-0.556713,0.0,0.0
510,127.25,38.0953,38.8752,159.5,100.014,106.329,0.0060843,0.0883857,20.8904,140.6,-0.564314,0.0,0.0
520,129.75,37.6946,38.6686,156.497,100.17,106.471,0.00587629,0.0872171,20.891,140.6,-0.56231,0.0,0.0
530,132.25,38.3769,38.7495,158.826,100.315,106.575,0.00566286,0.0858811,20.8929,140.56,-0.557877,0.0,0.0
540,134.75,38.3064,38.8986,159.477,100.449,106.728,0.0053591,0.0844975,20.8947,140.59,-0.558824,0.0,0.0
550,137.25,37.783,38.0633,158.227,100.47,106.83,0.00516635,0.0834773,20.8969,140.5,-0.565705,0.0,0.0
560,139.75,37.4888,38.3631,158.705,100.424,106.688,0.00505877,0.0819224,20.8991,140.53,-0.557742,0.0,0.0
570,142.25,37.6333,38.312,156.561,100.307,106.672,0.00486591,0.0805994,20.9001,140.47,-0.567041,0.0,0.0
580,144.75,37.5204,37.9614,156.458,100.1,106.359,0.0048131,0.079289,20.9011,140.5,-0.559035,0.0,0.0
590,147.25,36.861,37.9191,159.181,99.811,105.841,0.0049385,0.078032,20.9026,140.48,-0.540696,0.0,0.0
600,149.75,36.943,38.007,161.598,99.5087,105.72,0.00504141,0.0768575,20.9032,140.46,-0.55807,0.0,0.0
610,152.25,36.9492,37.8951,157.453,99.1846,105.32,0.00505029,0.076114,20.9039,140.44,-0.55317,0.0,0.0
620,154.75,36.7919,37.8682,159.042,98.8694,104.868,0.00496131,0.075216,20.9052,140.45,-0.542912,0.0,0.0
630,157.25,37.1472,37.6626,156.482,98.6318,104.748,0.00476809,0.0743561,20.9056,140.42,-0.554559,0.0,0.0
640,159.75,37.0102,37.4317,157.25,98.4946,104.446,0.00454688,0.0735646,20.9067,140.37,-0.540763,0.0,0.0
650,162.25,36.9311,37.73,158.737,98.4257,104.529,0.00442984,0.0731351,20.908,140.34,-0.554499,0.0,0.0
660,164.75,36.4609,37.2905,157.417,98.4438,104.55,0.00437003,0.0724284,20.9089,140.27,-0.554652,0.0,0.0
670,167.25,36.8197,37.5535,158.392,98.5505,104.228,0.00426944,0.0717307,20.9105,140.32,-0.516293,0.0,0.0
680,169.75,37.0148,37.6955,162.249,98.6576,104.814,0.00423591,0.0710972,20.9111,140.21,-0.557956,0.0,0.0
690,172.25,36.5879,37.4658,157.195,98.8424,105.036,0.00421954,0.0708384,20.9104,140.26,-0.560161,0.0,0.0
700,174.75,36.4844,36.9061,162.316,98.9849,105.062,0.00424938,0.0699916,20.9104,140.21,-0.549154,0.0,0.0
710,177.25,36.1644,37.1579,158.004,99.1504,105.215,0.00443738,0.0696084,20.9113,140.25,-0.54717,0.0,0.0
720,179.75,36.3773,37.0432,154.47,99.2792,105.362,0.00459811,0.0692608,20.9117,140.21,-0.548107,0.0,0.0
730,182.25,36.5104,37.105,153.49,99.4109,105.444,0.00453987,0.0686875,20.9118,140.23,-0.543013,0.0,0.0
740,184.75,36.3575,37.4539,161.268,99.5039,105.659,0.00424453,0.068359,20.912,140.25,-0.553246,0.0,0.0
750,187.25,36.6903,37.3544,157.661,99.5856,105.706,0.0040126,0.0681652,20.9133,140.22,-0.549767,0.0,0.0
760,189.75,35.8978,36.8612,156.03,99.6395,105.938,0.0039752,0.0677666,20.9125,140.069,-0.564976,0.0,0.0
770,192.25,36.0034,36.8803,159.013,99.679,105.745,0.0038079,0.0675169,20.9123,140.18,-0.54446,0.0,0.0
780,194.75,36.1813,36.9944,156.959,99.7241,105.686,0.00359461,0.0674716,20.9128,140.129,-0.535184,0.0,0.0
790,197.25,36.0666,36.9738,157.672,99.7124,105.766,0.00350711,0.0668709,20.915,140.139,-0.543199,0.0,0.0
800,199.75,35.7815,37.0665,153.796,99.749,105.55,0.00340913,0.0661435,20.916,140.17,-0.52098,0.0,0.0
810,202.25,36.2979,37.3414,157.532,99.7257,105.595,0.00330037,0.0657698,20.9176,140.099,-0.527124,0.0,0.0
820,204.75,35.7042,37.4699,158.466,99.7386,105.481,0.00307809,0.0662653,20.9163,140.129,-0.515913,0.0,0.0
830,207.25,36.0382,37.423,165.281,99.7076,105.821,0.0028127,0.066714,20.9158,140.059,-0.548482,0.0,0.0
840,209.75,36.3637,37.3312,159.243,99.7148,105.603,0.00274842,0.0667399,20.9157,140.109,-0.528828,0.0,0.0
850,212.25,36.2826,37.6309,161.765,99.6488,105.677,0.00283673,0.0660686,20.9163,140.069,-0.541338,0.0,0.0
860,214.75,36.405,37.0905,158.798,99.6669,105.603,0.00299182,0.0659809,20.9178,140.079,-0.533257,0.0,0.0
870,217.25,35.9775,37.4866,160.077,99.6138,105.584,0.0029432,0.0658422,20.9184,140.029,-0.53645,0.0,0.0
880,219.75,35.9268,37.2405,157.163,99.6077,105.615,0.00271677,0.0654749,20.919,140.069,-0.539755,0.0,0.0
890,222.25,36.02,37.4064,159.041,99.5747,105.468,0.00266239,0.065584,20.9191,140.049,-0.529935,0.0,0.0
900,224.75,35.7694,36.698,154.976,99.5639,105.567,0.00256643,0.0666072,20.9175,140.009,-0.539617,0.0,0.0
903,225.5,36.0598,37.2369,159.033,99.5707,105.443,0.002497,0.0669144,20.9171,140.009,-0.528152,0.0,0.0