Folder: fsri_materials_database/01_Data/Corrugated_Cardboard/Cone (part 4)

File: Corrugated_Cardboard_Cone_HF75Scan_250211_R1.csv
Names,Time,Stack TC,Smoke TC,Exh Press,Smoke Comp,Smoke Meas,CO Meter,CO2 Meter,O2 Meter,Sample Mass,Ext Coeff,Start Test,Flame Verif
Chan Gain,,500,500,1,1,1,1,1,1,1,1,1.0,1.0
Offset,,0,0,0.131183,0,0,0,0,0,0,0,0.0,0.0
Gain,,1,1,25.011,13.1923,20.2122,1,1,1,1.00092,1.05074,1.0,1.0
Units,sec,C,C,Pa,%,%,%,%,%,g,/m,,
Baseline,,58.2677,62.6212,147.622,100.234,104.555,0.000505636,0.0376017,20.9443,-438.07,-0.388987,,
7,1.5,57.0672,62.1626,150.812,100.51,105.53,0.000578333,0.0402042,20.9435,142.422,-0.449251,0.0,0.0
14,3.25,57.3299,62.2454,146.621,100.392,104.147,0.000530731,0.0406075,20.9435,142.322,-0.338491,0.0,0.0
21,5,58.093,64.0068,132.392,100.265,93.7676,0.000454841,0.0410391,20.9412,141.731,0.617527,0.0,1.0
28,6.75,61.9921,75.3208,103.998,100.125,84.6842,0.000439214,0.0417189,20.9395,141.14,1.54376,0.0,1.0
35,8.5,65.2646,85.3334,125.659,99.9801,83.8947,0.000523857,0.0425389,20.9388,140.57,1.61674,0.0,1.0
42,10.25,67.8582,91.0936,126.971,99.8203,94.0588,0.000595165,0.0437155,20.9384,140.19,0.547967,0.0,1.0
49,12,69.3683,92.6075,129.977,99.6657,96.7037,0.000631926,0.0495439,20.9372,139.839,0.278075,0.0,0.0
56,13.75,70.5075,93.5244,128.471,99.5019,96.9634,0.000904743,0.106743,20.9358,139.709,0.238191,0.0,0.0
63,15.5,71.6205,93.936,135.911,99.3553,95.2437,0.00214694,0.328746,20.9192,139.399,0.389544,0.0,0.0
70,17.25,72.1541,94.1581,132.284,99.2212,93.025,0.00387625,0.631623,20.6472,139.179,0.594351,0.0,0.0
77,19,73.3957,95.8462,127.059,99.0807,91.7543,0.00563947,0.77248,20.2816,138.868,0.708055,0.0,0.0
84,20.75,74.0185,96.9309,136.645,98.9507,93.3328,0.00644005,0.752311,20.1067,138.558,0.538738,0.0,0.0
91,22.5,74.3148,96.872,128.205,98.8621,92.3082,0.0063469,0.660403,20.1203,138.358,0.632222,0.0,0.0
98,24.25,75.3034,97.4077,134.565,98.805,95.1203,0.00567132,0.57395,20.2172,138.098,0.350292,0.0,0.0
105,26,75.3214,96.9693,141.303,98.7627,97.1139,0.00507221,0.521847,20.3057,137.867,0.155169,0.0,0.0
112,27.75,76.115,96.2892,139.033,98.6942,95.8087,0.0047786,0.509474,20.3551,137.697,0.273496,0.0,0.0
119,29.5,75.6003,94.5907,138.275,98.7132,98.6085,0.00485259,0.519309,20.3737,137.687,0.00977918,0.0,0.0
126,31.25,75.4297,93.2483,137.676,98.7562,99.9341,0.00500491,0.522356,20.3731,137.587,-0.109275,0.0,0.0
133,33,74.8381,90.7605,138.569,98.7993,99.9026,0.00493082,0.514417,20.374,137.467,-0.102354,0.0,0.0
140,34.75,74.1409,88.4869,141.101,98.9028,100.902,0.00460949,0.492175,20.3831,137.407,-0.184496,0.0,0.0
147,36.5,73.5892,86.0333,140.301,98.9616,101.082,0.00420693,0.459538,20.3959,137.397,-0.195402,0.0,0.0
154,38.25,73.0291,84.4191,142.642,99.0936,102.305,0.003715,0.404799,20.4389,137.427,-0.293918,0.0,0.0
161,40,72.0943,81.9254,141.073,99.2136,101.996,0.00324585,0.348218,20.5041,137.357,-0.254938,0.0,0.0
168,41.75,71.4537,80.2408,147.046,99.3299,101.622,0.00289747,0.308539,20.5665,137.327,-0.210239,0.0,0.0
175,43.5,70.5763,78.6963,143.046,99.4354,101.96,0.00261069,0.262333,20.6232,137.277,-0.231119,0.0,0.0
182,45.25,70.2807,77.1634,146.103,99.5687,102.824,0.00245151,0.221577,20.6783,137.317,-0.296511,0.0,0.0
189,47,68.5962,74.8223,148.582,99.6866,102.324,0.00251373,0.189854,20.7227,137.317,-0.240646,0.0,0.0
196,48.75,67.6011,73.6158,141.187,99.7978,103.728,0.00283925,0.164475,20.7605,137.227,-0.356032,0.0,0.0
203,50.5,67.3221,72.3312,139.393,99.8726,103.055,0.00327955,0.146831,20.7902,137.257,-0.289072,0.0,0.0
210,52.25,67.2304,71.7524,144.729,99.9745,103.433,0.00375146,0.13368,20.8113,137.247,-0.313487,0.0,0.0
217,54,66.3854,71.5794,145.149,100.059,102.461,0.00417883,0.124551,20.8264,137.247,-0.218642,0.0,0.0
224,55.75,66.1131,70.3786,146.816,100.064,101.696,0.00450891,0.117087,20.8375,137.197,-0.149154,0.0,0.0
231,57.5,65.1428,69.3373,145.445,100.047,103.367,0.00463891,0.112086,20.8466,137.127,-0.30087,0.0,0.0
238,59.25,65.2232,69.373,145.506,100.047,103.309,0.00468446,0.109144,20.8527,137.097,-0.295791,0.0,0.0
245,61,65.097,68.827,144.614,99.989,102.87,0.00481211,0.107019,20.857,137.087,-0.26183,0.0,0.0
252,62.75,64.6705,68.116,143.246,99.9435,103.265,0.00503195,0.104653,20.8611,137.087,-0.301328,0.0,0.0
259,64.5,64.3468,67.9131,143.232,99.8654,102.751,0.00517345,0.101733,20.8652,137.047,-0.262558,0.0,0.0
266,66.25,63.834,67.4298,144.68,99.7829,103.313,0.0051091,0.0989646,20.869,137.047,-0.320447,0.0,0.0
273,68,64.0328,67.4162,147.094,99.6991,102.473,0.0048928,0.0971451,20.8722,137.017,-0.252928,0.0,0.0
280,69.75,63.3578,66.9475,140.588,99.6367,102.63,0.00467513,0.0952453,20.875,137.087,-0.272837,0.0,0.0
287,71.5,63.2204,66.8683,144.436,99.5381,103.589,0.0046425,0.0936789,20.877,137.067,-0.367651,0.0,0.0
294,73.25,63.3233,66.956,146.997,99.5047,102.6,0.00478358,0.092965,20.8785,136.957,-0.282345,0.0,0.0
301,75,63.1824,66.4688,140.535,99.611,101.796,0.00496521,0.0923417,20.8792,136.927,-0.200019,0.0,0.0
308,76.75,63.0328,66.3063,150.769,99.8879,102.325,0.00511397,0.0916607,20.8796,136.977,-0.222164,0.0,0.0
315,78.5,62.3942,66.1912,141.42,100.087,103.34,0.00522952,0.0913469,20.881,136.977,-0.294834,0.0,0.0
322,80.25,62.7109,66.1171,150.476,100.208,102.939,0.00530797,0.0911092,20.8816,136.906,-0.247796,0.0,0.0
329,82,62.4328,66.2891,143.685,100.293,102.596,0.00531729,0.0909675,20.8819,136.906,-0.209227,0.0,0.0
336,83.75,62.4162,66.1229,145.615,100.318,102.845,0.00526166,0.0904402,20.8824,136.886,-0.229386,0.0,0.0
343,85.5,62.2802,66.1918,148.174,100.309,103.196,0.00518665,0.0897168,20.8841,136.937,-0.261508,0.0,0.0
350,87.25,62.2624,65.5868,148.199,100.188,103.12,0.00508168,0.0887395,20.885,136.836,-0.265835,0.0,0.0
357,89,61.7042,65.7304,144.475,100.001,102.73,0.00490392,0.0879369,20.8855,136.796,-0.248108,0.0,0.0
364,90.75,61.7658,65.3986,141.247,99.8702,102.649,0.00468282,0.0868121,20.8869,136.766,-0.252979,0.0,0.0
371,92.5,62.4313,65.328,144.499,99.9934,102.479,0.00455125,0.0852375,20.8886,136.866,-0.226316,0.0,0.0
378,94.25,61.6064,65.4193,145.349,100.121,102.665,0.00452913,0.0831392,20.8908,136.856,-0.231243,0.0,0.0
385,96,61.2434,65.0751,144.675,100.293,104.098,0.00456246,0.0811098,20.8937,136.726,-0.343238,0.0,0.0
392,97.75,61.4374,65.2063,145.877,100.44,103.71,0.00462514,0.0798612,20.8957,136.706,-0.295272,0.0,0.0
399,99.5,61.1983,65.4814,145.845,100.6,104.067,0.00461714,0.0791926,20.8978,136.726,-0.312265,0.0,0.0
406,101.25,61.563,64.8848,147.16,100.727,104.161,0.0045587,0.0785905,20.8988,136.786,-0.309008,0.0,0.0
413,103,61.2925,64.7551,145.597,100.785,103.625,0.0045178,0.0777747,20.9,136.696,-0.256133,0.0,0.0
420,104.75,60.9876,65.0963,145.65,100.812,104.161,0.00445781,0.0767071,20.901,136.646,-0.30122,0.0,0.0
427,106.5,60.8929,64.6887,144.839,100.762,104.632,0.00430759,0.0756337,20.9016,136.646,-0.34741,0.0,0.0
434,108.25,61.0613,64.7141,144.386,100.668,103.38,0.0040375,0.0748476,20.9026,136.726,-0.244973,0.0,0.0
441,110,61.0311,64.6692,148.002,100.507,102.714,0.00378313,0.0742365,20.9036,136.696,-0.200235,0.0,0.0
448,111.75,60.9838,64.5922,143.584,100.298,103.309,0.00363644,0.0733646,20.904,136.616,-0.272676,0.0,0.0
455,113.5,61.3139,64.5919,146.848,100.037,102.793,0.0035592,0.0727326,20.9053,136.636,-0.250467,0.0,0.0
462,115.25,61.2444,64.5923,145.639,99.7937,103.245,0.00346137,0.0720263,20.9065,136.636,-0.313388,0.0,0.0
469,117,60.8186,64.8848,143.764,99.5337,101.946,0.00339889,0.0710531,20.9078,136.636,-0.220736,0.0,0.0
476,118.75,60.6377,64.5916,146.641,99.2824,102.472,0.00335863,0.0697836,20.9094,136.596,-0.291476,0.0,0.0
483,120.5,60.4426,64.9926,146.116,99.0618,102.965,0.00328971,0.0686086,20.9104,136.576,-0.356149,0.0,0.0
490,122.25,60.3133,64.5623,144.349,98.9189,101.725,0.00321816,0.0678615,20.9121,136.546,-0.257798,0.0,0.0
497,124,60.1386,64.4111,146.566,98.8207,102.324,0.00320153,0.0671517,20.913,136.596,-0.321065,0.0,0.0
504,125.75,60.4244,64.4369,142.77,98.7909,102.131,0.00324639,0.0667014,20.9146,136.576,-0.306493,0.0,0.0
511,127.5,60.4118,64.4748,145.683,98.8142,101.461,0.00325228,0.0661367,20.9153,136.546,-0.243661,0.0,0.0
518,129.25,60.4006,64.0583,148.46,98.9008,102.356,0.00309557,0.0656092,20.9158,136.506,-0.31654,0.0,0.0
525,131,60.7418,64.0941,147.189,99.0465,102.48,0.00289589,0.0650001,20.9165,136.556,-0.314069,0.0,0.0
532,132.75,60.573,64.263,151.11,99.2216,102.44,0.00271136,0.0644474,20.9169,136.586,-0.29418,0.0,0.0
539,134.5,60.0038,64.205,142.519,99.4105,101.689,0.00267277,0.0641031,20.9171,136.496,-0.208866,0.0,0.0
546,136.25,60.1068,64.0066,145.771,99.5936,102.377,0.00262522,0.0638343,20.9172,136.526,-0.254082,0.0,0.0
553,138,60.3794,63.8456,145.126,99.7792,102.884,0.00252911,0.063485,20.9173,136.446,-0.282401,0.0,0.0
560,139.75,59.8397,64.2687,147.562,99.9334,103.078,0.00249289,0.0629762,20.9185,136.456,-0.285559,0.0,0.0
567,141.5,59.8562,64.153,147.526,100.047,103.383,0.00258086,0.0624728,20.919,136.446,-0.302393,0.0,0.0
574,143.25,60.1285,64.0204,145.717,100.097,101.577,0.00268384,0.061926,20.9189,136.406,-0.135224,0.0,0.0
581,145,59.9437,64.0339,146.798,100.126,102.928,0.00275006,0.0615628,20.9188,136.396,-0.254378,0.0,0.0
588,146.75,60.1135,64.393,148.388,100.119,103.237,0.00279,0.0615145,20.9188,136.396,-0.282676,0.0,0.0
595,148.5,59.986,63.8768,144.498,100.039,103.161,0.00276014,0.0611768,20.9192,136.426,-0.283241,0.0,0.0
602,150.25,60.3826,64.2439,148.141,99.9117,103.003,0.00267595,0.0608276,20.9202,136.366,-0.280832,0.0,0.0
609,152,60.4496,64.1547,147.282,99.8062,102.919,0.00261234,0.0603282,20.9207,136.336,-0.283115,0.0,0.0
616,153.75,60.1286,64.3814,143.4,99.708,103.071,0.00256243,0.0600256,20.9214,136.336,-0.305769,0.0,0.0
623,155.5,60.2386,64.1331,144.655,99.6105,102.779,0.00252385,0.0597017,20.9226,136.406,-0.288653,0.0,0.0
630,157.25,60.1825,64.1634,147.58,99.5172,102.242,0.00252145,0.0594874,20.9223,136.376,-0.248994,0.0,0.0
637,159,59.8703,64.2711,147.299,99.683,102.49,0.00251149,0.059571,20.9218,136.316,-0.255971,0.0,0.0
644,160.75,59.9571,64.3933,143.596,100.001,103.229,0.00245528,0.0595631,20.9216,136.326,-0.292826,0.0,0.0
651,162.5,59.7591,64.5984,143.265,100.196,103.301,0.00240065,0.0592977,20.9219,136.346,-0.281288,0.0,0.0
658,164.25,59.8529,64.3799,148.08,100.343,102.602,0.00237404,0.0589602,20.9228,136.386,-0.205213,0.0,0.0
662,165.25,60.1548,64.6243,147.533,100.344,104.023,0.00235167,0.0587181,20.9231,136.376,-0.331912,0.0,0.0

File: Corrugated_Cardboard_Cone_HF75Scan_250211_R2.csv
Names,Time,Stack TC,Smoke TC,Exh Press,Smoke Comp,Smoke Meas,CO Meter,CO2 Meter,O2 Meter,Sample Mass,Ext Coeff,Start Test,Flame Verif
Chan Gain,,500,500,1,1,1,1,1,1,1,1,1.0,1.0
Offset,,0,0,0.131183,0,0,0,0,0,0,0,0.0,0.0
Gain,,1,1,25.011,13.1923,20.2122,1,1,1,1.00092,1.05074,1.0,1.0
Units,sec,C,C,Pa,%,%,%,%,%,g,/m,,
Baseline,,60.6403,64.5856,146.72,100.008,102.998,0.000292328,0.0340596,20.9555,-438.406,-0.271466,,
7,1.5,59.6756,63.6725,147.086,99.8251,102.904,0.000184968,0.0339038,20.9548,139.219,-0.279986,0.0,0.0
14,3.25,59.7988,63.6806,139.696,99.7213,100.16,9.91315e-05,0.0339799,20.955,139.199,-0.0405009,0.0,1.0
21,5,61.4188,68.4583,121.808,99.5977,87.2151,0.000123403,0.0338956,20.9543,138.438,1.22366,0.0,1.0
28,6.75,65.0518,80.9199,112.07,99.6391,84.8748,0.000214815,0.0341933,20.9536,137.757,1.4782,0.0,1.0
35,8.5,67.6083,87.9996,125.393,99.9632,90.7544,0.000307565,0.0351189,20.9532,137.267,0.890777,0.0,1.0
42,10.25,70.0507,92.3392,129.397,100.205,96.6741,0.000450187,0.0383503,20.9526,136.937,0.330652,0.0,1.0
49,12,71.6433,94.1454,128.527,100.351,94.9192,0.000677582,0.0564188,20.9469,136.676,0.512896,0.0,0.0
56,13.75,72.7187,95.0618,134.186,100.328,96.4675,0.00116197,0.192272,20.9284,136.386,0.361699,0.0,0.0
63,15.5,73.4505,95.6041,134.698,100.179,95.4528,0.00261345,0.452263,20.8448,136.146,0.445392,0.0,0.0
70,17.25,74.0937,95.7411,134.553,99.9302,93.5887,0.00408768,0.683803,20.5969,135.906,0.604284,0.0,0.0
77,19,74.8981,96.429,130.559,100.08,90.5614,0.00531397,0.756919,20.3384,135.595,0.921127,0.0,0.0
84,20.75,76.4555,98.5627,126.282,100.295,88.8521,0.00555564,0.712999,20.207,135.275,1.11656,0.0,0.0
91,22.5,77.6369,100.525,122.935,100.524,87.7499,0.00499239,0.620526,20.1762,134.915,1.25269,0.0,0.0
98,24.25,78.5797,101.8,131.374,100.712,89.3259,0.00425533,0.541474,20.2522,134.594,1.10577,0.0,0.0
105,26,79.0109,101.641,134.787,100.836,94.0976,0.00381834,0.497059,20.3363,134.414,0.637439,0.0,0.0
112,27.75,78.9033,99.5447,133.702,100.917,97.3027,0.003744,0.494059,20.3828,134.404,0.33616,0.0,0.0
119,29.5,78.516,97.4962,136.927,100.893,100.952,0.00406842,0.519862,20.4021,134.324,-0.00544372,0.0,0.0
126,31.25,77.84,94.2364,143.277,100.748,101.465,0.00474259,0.566459,20.3803,134.254,-0.0653375,0.0,0.0
133,33,76.7494,91.272,142.256,100.546,101.105,0.00534539,0.584549,20.3281,134.264,-0.0511578,0.0,0.0
140,34.75,76.2167,88.8144,141.544,100.281,99.5239,0.00547177,0.554452,20.2997,134.214,0.0698427,0.0,0.0
147,36.5,75.1819,86.7802,147.629,99.9741,101.235,0.00508643,0.485278,20.3264,134.254,-0.115515,0.0,0.0
154,38.25,74.7741,84.3922,141.104,99.681,99.7101,0.00430533,0.401425,20.3897,134.204,-0.00269288,0.0,0.0
161,40,73.7164,82.1176,144.019,99.4004,101.249,0.00365422,0.326302,20.4729,134.154,-0.169793,0.0,0.0
168,41.75,73.1805,80.5735,151.391,99.2027,100.205,0.00310383,0.259166,20.5675,134.114,-0.0926398,0.0,0.0
175,43.5,71.119,77.8723,143.143,99.0904,100.015,0.00296944,0.212781,20.6413,134.154,-0.0856471,0.0,0.0
182,45.25,70.7725,76.4151,141.08,99.0695,99.6855,0.00311139,0.179578,20.7132,133.914,-0.0571321,0.0,0.0
189,47,70.0869,75.4802,144.54,99.0554,99.9778,0.00328326,0.160933,20.7552,134.054,-0.0854375,0.0,0.0
196,48.75,69.7068,74.1129,144.246,99.2188,99.7953,0.00352693,0.145676,20.7876,134.054,-0.0533938,0.0,0.0
203,50.5,69.1434,73.38,145.299,99.4121,100.677,0.00393952,0.134795,20.8077,134.044,-0.116511,0.0,0.0
210,52.25,68.4596,72.4086,142.341,99.6536,101.832,0.00447806,0.126906,20.821,134.034,-0.199309,0.0,0.0
217,54,68.5383,72.2598,146.619,99.8787,101.823,0.00480589,0.119994,20.8324,134.014,-0.177681,0.0,0.0
224,55.75,67.4908,71.0789,145.562,100.051,102.145,0.00493063,0.113948,20.8423,133.934,-0.190893,0.0,0.0
231,57.5,67.3994,70.4733,145.239,100.166,101.945,0.00500495,0.107842,20.8513,133.924,-0.162241,0.0,0.0
238,59.25,67.1436,70.4665,145.023,100.304,101.82,0.00502564,0.104558,20.8577,133.974,-0.138215,0.0,0.0
245,61,66.7169,69.5704,146.839,100.321,101.658,0.00497238,0.102282,20.8633,133.934,-0.12202,0.0,0.0
252,62.75,66.2388,69.3168,142.762,100.28,101.756,0.00485818,0.100814,20.866,133.894,-0.134681,0.0,0.0
259,64.5,66.1055,69.2089,142.266,100.156,99.976,0.00474333,0.0987254,20.8684,133.894,0.0165499,0.0,0.0
266,66.25,65.8092,68.6942,146.892,100.012,101.348,0.00472161,0.0963118,20.8709,133.884,-0.122298,0.0,0.0
273,68,65.6477,68.5924,141.334,99.8368,100.754,0.00479953,0.093659,20.8755,133.944,-0.0843275,0.0,0.0
280,69.75,65.0456,68.4696,149.163,99.704,100.939,0.00480822,0.0911961,20.8791,133.844,-0.113514,0.0,0.0
287,71.5,65.0799,67.7443,142.303,99.5985,100.024,0.00476755,0.0889452,20.8821,133.844,-0.0393041,0.0,0.0
294,73.25,64.731,67.9501,146.874,99.7917,101.469,0.00477599,0.0872072,20.8849,133.814,-0.153659,0.0,0.0
301,75,64.5769,67.7268,148.115,100.102,101.84,0.00486244,0.085872,20.8872,133.824,-0.158647,0.0,0.0
308,76.75,64.1821,66.8409,148.319,100.297,101.472,0.00495901,0.0848346,20.8887,133.854,-0.107298,0.0,0.0
315,78.5,64.1688,67.1673,143.052,100.35,101.126,0.00501447,0.0838505,20.8894,133.774,-0.0709667,0.0,0.0
322,80.25,64.0588,67.1063,146.258,100.334,101.965,0.00505638,0.0828333,20.891,133.794,-0.148646,0.0,0.0
329,82,63.8711,66.8612,140.302,100.219,100.132,0.00497937,0.0815691,20.893,133.764,0.00798885,0.0,0.0
336,83.75,63.8975,66.8562,145.623,99.962,102.083,0.00482494,0.080281,20.8951,133.794,-0.193526,0.0,0.0
343,85.5,63.7214,66.5827,144.368,100.057,101.155,0.00473022,0.0795449,20.896,133.704,-0.100531,0.0,0.0
350,87.25,63.6366,67.0957,145.529,100.272,101.196,0.00466086,0.0788276,20.8973,133.724,-0.0845504,0.0,0.0
357,89,63.829,66.6191,146.476,100.467,100.439,0.00462872,0.0780401,20.8981,133.653,0.00263003,0.0,0.0
364,90.75,63.3586,66.8715,146.806,100.652,101.666,0.00463633,0.0776876,20.8984,133.774,-0.0923929,0.0,0.0
371,92.5,63.3857,66.6852,147.526,100.818,102.063,0.00464581,0.0775105,20.899,133.724,-0.113123,0.0,0.0
378,94.25,63.2353,66.6734,145.694,100.907,101.933,0.00464762,0.0771607,20.9,133.764,-0.0933041,0.0,0.0
385,96,63.2524,67.1219,146.064,100.948,101.531,0.00459999,0.0763129,20.9002,133.633,-0.053044,0.0,0.0
392,97.75,62.8632,66.0915,145.697,100.927,101.137,0.00449222,0.0755829,20.9004,133.543,-0.0191612,0.0,0.0
399,99.5,62.8705,66.3183,149.456,100.85,101.796,0.00437656,0.0751775,20.9015,133.653,-0.0860447,0.0,0.0
406,101.25,62.6128,65.729,148.71,100.699,102.525,0.00421721,0.0747292,20.902,133.613,-0.165688,0.0,0.0
413,103,62.5524,65.8793,147.613,100.479,101.57,0.00404117,0.074044,20.903,133.593,-0.0995313,0.0,0.0
420,104.75,62.7816,65.8231,146.346,100.244,101.237,0.00395113,0.0734705,20.9039,133.553,-0.0909047,0.0,0.0
427,106.5,63.0709,66.1285,141.218,100.003,100.808,0.0039593,0.0725623,20.9044,133.623,-0.073898,0.0,0.0
434,108.25,62.3329,66.1545,145.543,99.7374,101.509,0.003992,0.0717822,20.9055,133.603,-0.162322,0.0,0.0
441,110,62.3696,65.7803,142.966,99.5035,99.8366,0.00391819,0.0711277,20.9064,133.533,-0.0308054,0.0,0.0
448,111.75,62.667,65.5087,145.547,99.3219,100.415,0.00376943,0.0705193,20.9081,133.493,-0.100901,0.0,0.0
455,113.5,62.387,65.6492,145.31,99.1806,100.006,0.00360265,0.0700803,20.9096,133.443,-0.0763533,0.0,0.0
462,115.25,62.2375,66.0445,143.291,99.1544,99.8119,0.00351721,0.0696374,20.9103,133.553,-0.0609167,0.0,0.0
469,117,62.3765,65.6967,145.454,99.1842,99.5775,0.00356344,0.0689563,20.9116,133.453,-0.0364781,0.0,0.0
476,118.75,61.9904,65.5181,143.511,99.27,99.9334,0.00362556,0.0679364,20.9125,133.433,-0.0613973,0.0,0.0
483,120.5,62.3047,65.4749,145.671,99.4326,99.4751,0.0036438,0.0672866,20.9129,133.453,-0.00394096,0.0,0.0
490,122.25,61.73,65.5801,143.085,99.6407,99.9433,0.00360408,0.0671245,20.9141,133.493,-0.027944,0.0,0.0
497,124,62.1699,65.4149,143.146,99.8199,100.47,0.00357499,0.0671391,20.9149,133.493,-0.0598395,0.0,0.0
504,125.75,61.7533,65.0215,139.614,100.003,101.896,0.00358285,0.0667553,20.9153,133.403,-0.172831,0.0,0.0
511,127.5,61.6179,65.3334,144.581,100.171,100.687,0.0035524,0.0662029,20.9154,133.383,-0.0473208,0.0,0.0
518,129.25,61.7629,65.1617,147.428,100.318,100.003,0.00346258,0.0659103,20.9165,133.423,0.0289297,0.0,0.0
525,131,62.1018,65.9568,142.339,100.411,100.965,0.00337936,0.0656893,20.9172,133.463,-0.0507197,0.0,0.0
532,132.75,61.5072,65.6712,143.132,100.415,102.043,0.00337992,0.0654697,20.9164,133.323,-0.148275,0.0,0.0
539,134.5,61.5688,65.6314,146.466,100.362,100.534,0.00339991,0.0651322,20.9162,133.303,-0.0157844,0.0,0.0
546,136.25,61.8981,65.7388,145.056,100.282,101.547,0.00342515,0.0647212,20.9166,133.303,-0.1155,0.0,0.0
553,138,61.4082,65.292,147.135,100.146,101.65,0.0034006,0.0645544,20.9172,133.343,-0.137434,0.0,0.0
560,139.75,61.5514,65.2047,146.099,99.991,99.7151,0.00334838,0.0643269,20.9183,133.243,0.0254701,0.0,0.0
567,141.5,61.9188,65.0723,147.975,99.8505,101.627,0.00333679,0.0641043,20.9187,133.243,-0.162564,0.0,0.0
574,143.25,62.1694,65.7468,142.776,99.745,100.074,0.00337864,0.0634592,20.919,133.253,-0.0303557,0.0,0.0
581,145,61.7361,65.3041,144.659,99.6766,100.512,0.00348075,0.0627787,20.9191,133.323,-0.07693,0.0,0.0
588,146.75,61.9603,65.4225,145.211,99.8674,100.011,0.00352324,0.0622994,20.9198,133.293,-0.0131999,0.0,0.0
595,148.5,61.6275,65.8504,148.844,100.109,100.91,0.00349992,0.0619406,20.9207,133.233,-0.0734444,0.0,0.0
602,150.25,61.449,65.9053,148.975,100.307,100.154,0.00347314,0.0615428,20.9212,133.233,0.01405,0.0,0.0
609,152,61.9576,65.6929,139.018,100.431,101.094,0.00350175,0.0612568,20.9214,133.233,-0.0605761,0.0,0.0
616,153.75,61.7808,65.2554,146.191,100.423,101.199,0.00355422,0.0608606,20.9215,133.303,-0.0710004,0.0,0.0
623,155.5,61.8215,65.5986,148.403,100.339,101.184,0.00357396,0.0606166,20.9215,133.163,-0.0773045,0.0,0.0
630,157.25,61.5877,66.0009,146.035,100.16,101.51,0.00352624,0.0604713,20.9215,133.143,-0.123396,0.0,0.0
637,159,61.5654,65.4072,141.917,100.059,101.183,0.00340682,0.0599726,20.9215,133.163,-0.103005,0.0,0.0
644,160.75,61.4353,65.5283,145.187,100.183,101.329,0.00331696,0.0595798,20.9228,133.263,-0.104841,0.0,0.0
650,162.25,61.7471,64.9919,146.883,100.303,101.451,0.00331807,0.0590824,20.9233,133.143,-0.104838,0.0,0.0