Folder: fsri_materials_database/01_Data/Corrugated_Cardboard/Cone (part 5)

File: Corrugated_Cardboard_Cone_HF75Scan_250211_R3.csv
Names,Time,Stack TC,Smoke TC,Exh Press,Smoke Comp,Smoke Meas,CO Meter,CO2 Meter,O2 Meter,Sample Mass,Ext Coeff,Start Test,Flame Verif
Chan Gain,,500,500,1,1,1,1,1,1,1,1,1.0,1.0
Offset,,0,0,0.131183,0,0,0,0,0,0,0,0.0,0.0
Gain,,1,1,25.011,13.1923,20.2122,1,1,1,1.00092,1.05074,1.0,1.0
Units,sec,C,C,Pa,%,%,%,%,%,g,/m,,
Baseline,,61.6495,65.5612,146.546,100.673,98.7295,0.000396318,0.0349771,20.9539,-438.99,0.179866,,
7,1.5,60.3682,64.4399,142.604,100.568,99.0464,0.000214962,0.0357412,20.9548,129.74,0.140473,0.0,0.0
14,3.25,60.3351,64.5228,146.072,100.464,98.3315,0.00011924,0.0356711,20.9539,129.66,0.197753,0.0,0.0
21,5,60.6071,65.3203,120.999,100.392,91.9153,0.000118503,0.035912,20.9535,129.109,0.813077,0.0,1.0
28,6.75,64.4722,75.133,118.983,100.342,84.9624,0.000235538,0.0376235,20.9527,128.379,1.53345,0.0,1.0
35,8.5,68.1569,87.1573,120.405,100.222,85.1789,0.000244101,0.0397564,20.9506,127.858,1.499,0.0,1.0
42,10.25,70.5785,92.5181,130.352,100.076,91.2608,0.000195538,0.0421127,20.9472,127.478,0.849913,0.0,1.0
49,12,72.4345,95.2778,136.602,100.082,91.6741,0.000191345,0.0451084,20.9445,127.077,0.808751,0.0,0.0
56,13.75,73.5964,96.5149,133.061,100.151,91.8555,0.000572467,0.0856172,20.9436,126.837,0.796948,0.0,0.0
63,15.5,74.7543,96.985,132.793,100.243,91.869,0.0014363,0.322901,20.9246,126.617,0.80403,0.0,0.0
70,17.25,75.1006,97.2163,128.975,100.357,91.3429,0.0028397,0.590258,20.7389,126.307,0.867477,0.0,0.0
77,19,75.5251,97.4251,128.284,100.421,89.3129,0.00446018,0.758833,20.3649,126.026,1.08046,0.0,0.0
84,20.75,76.0406,97.9717,136.232,100.562,89.0538,0.00539501,0.764027,20.1861,125.706,1.12016,0.0,0.0
91,22.5,77.2137,98.9539,130.403,100.654,91.2362,0.00545664,0.699057,20.1251,125.496,0.905462,0.0,0.0
98,24.25,77.861,99.2623,134.951,100.759,91.5181,0.00513596,0.61951,20.1807,125.286,0.886608,0.0,0.0
105,26,78.2185,99.1623,127.27,100.815,93.1156,0.00484738,0.554502,20.2547,125.136,0.732218,0.0,0.0
112,27.75,78.6836,98.92,139.538,100.838,94.4653,0.00472301,0.515765,20.3165,124.905,0.601721,0.0,0.0
119,29.5,78.4044,96.8469,137.658,100.889,96.5242,0.00477752,0.505932,20.3596,124.805,0.407657,0.0,0.0
126,31.25,77.9087,94.9826,141.136,100.947,95.2406,0.00484987,0.508319,20.38,124.745,0.536309,0.0,0.0
133,33,77.5565,93.3975,138.857,100.934,96.8148,0.00472952,0.508412,20.3858,124.655,0.384039,0.0,0.0
140,34.75,76.7649,90.7111,146.342,100.931,98.1853,0.00436025,0.499412,20.3886,124.635,0.254212,0.0,0.0
147,36.5,76.3245,88.2291,145.89,100.905,99.1963,0.00400077,0.464763,20.3982,124.595,0.157403,0.0,0.0
154,38.25,73.912,84.5338,142.369,100.856,97.0374,0.00362427,0.409711,20.4208,124.605,0.355765,0.0,0.0
161,40,73.197,82.8317,144.385,100.833,97.9016,0.00335396,0.352964,20.4886,124.565,0.271948,0.0,0.0
168,41.75,72.7615,80.2515,145.205,100.731,99.2352,0.00307973,0.302168,20.5531,124.535,0.137856,0.0,0.0
175,43.5,71.8083,79.2029,145.739,100.649,96.9942,0.00276285,0.253225,20.6176,124.495,0.3409,0.0,0.0
182,45.25,71.7202,77.7189,145.394,100.558,97.199,0.00260089,0.206965,20.6856,124.465,0.313161,0.0,0.0
189,47,70.7891,76.3226,142.739,100.473,96.6279,0.00268671,0.171574,20.7419,124.545,0.359658,0.0,0.0
196,48.75,70.4356,75.3598,144.632,100.341,97.7776,0.00307831,0.148083,20.7802,124.475,0.238511,0.0,0.0
203,50.5,69.7175,74.6248,144.765,100.214,97.4982,0.00343786,0.132537,20.8093,124.415,0.253268,0.0,0.0
210,52.25,69.2593,73.7372,141.373,100.112,96.8296,0.00364665,0.124823,20.8296,124.395,0.307249,0.0,0.0
217,54,69.2327,73.0096,144.773,100.022,97.7209,0.0038056,0.120644,20.8399,124.395,0.214489,0.0,0.0
224,55.75,68.5563,72.3554,144.303,99.9222,97.3249,0.0040465,0.117038,20.8454,124.415,0.242748,0.0,0.0
231,57.5,68.3581,71.7501,149.566,99.8618,96.7013,0.00431848,0.113541,20.8487,124.395,0.296423,0.0,0.0
238,59.25,68.0105,71.275,144.178,99.7837,97.0707,0.00454494,0.110655,20.8539,124.355,0.254063,0.0,0.0
245,61,67.2476,70.8994,147.59,99.7535,97.4507,0.00479413,0.1077,20.8575,124.325,0.215265,0.0,0.0
252,62.75,67.2105,70.265,144.455,99.7253,97.2342,0.00499351,0.104862,20.8611,124.345,0.233162,0.0,0.0
259,64.5,67.2116,69.9304,142.554,99.712,96.4015,0.00507066,0.102038,20.8643,124.335,0.311208,0.0,0.0
266,66.25,66.9564,69.4108,143.098,99.7241,97.0936,0.00505668,0.0992615,20.869,124.255,0.24639,0.0,0.0
273,68,66.2798,69.3838,147.69,99.7583,97.711,0.00497484,0.0964115,20.8724,124.255,0.191125,0.0,0.0
280,69.75,66.4344,68.9666,142.19,99.8537,96.9276,0.00476761,0.0939189,20.8745,124.315,0.274129,0.0,0.0
287,71.5,65.9203,68.7244,141.154,99.9133,98.3568,0.00460247,0.0919558,20.8772,124.325,0.144716,0.0,0.0
294,73.25,65.5254,68.3971,146.326,100.014,97.5716,0.00460576,0.0903322,20.8795,124.215,0.227911,0.0,0.0
301,75,65.6543,68.822,145.55,100.109,97.1213,0.00462775,0.0888683,20.882,124.215,0.279223,0.0,0.0
308,76.75,65.5225,68.7452,144.475,100.231,97.5192,0.00452671,0.0873007,20.8842,124.205,0.252768,0.0,0.0
315,78.5,65.1505,68.3741,138.084,100.403,98.6461,0.00439428,0.0859687,20.8857,124.235,0.162735,0.0,0.0
322,80.25,64.9945,67.9607,143.696,100.504,98.0348,0.00437365,0.0846583,20.888,124.185,0.229261,0.0,0.0
329,82,64.9819,67.9066,143.283,100.637,98.0688,0.0044066,0.0837262,20.8895,124.155,0.238248,0.0,0.0
336,83.75,64.3271,67.6549,144.337,100.781,99.002,0.00453175,0.0832048,20.8925,124.155,0.164141,0.0,0.0
343,85.5,64.4366,67.4307,147.387,100.905,97.4661,0.004563,0.0830087,20.8942,124.175,0.319624,0.0,0.0
350,87.25,64.3686,67.7363,147.56,101.024,98.9465,0.00446823,0.0825286,20.895,124.145,0.191487,0.0,0.0
357,89,64.2077,67.6129,141.387,101.127,97.9497,0.00436275,0.0820345,20.8955,124.065,0.294209,0.0,0.0
364,90.75,64.4206,67.6296,147.617,101.196,98.2168,0.00430316,0.0813056,20.896,124.055,0.27542,0.0,0.0
371,92.5,64.4122,68.0301,148.128,101.283,98.2692,0.00424392,0.0802229,20.8966,124.075,0.278381,0.0,0.0
378,94.25,63.597,67.653,145.529,101.342,98.2378,0.00414455,0.0794835,20.8978,124.105,0.286717,0.0,0.0
385,96,64.0553,67.7498,144.849,101.384,98.8151,0.00411141,0.0791942,20.8984,124.015,0.23655,0.0,0.0
392,97.75,64.123,68.0475,147.856,101.375,99.7737,0.00421778,0.0790686,20.8987,124.015,0.146767,0.0,0.0
399,99.5,64.0094,67.4169,144.419,101.377,99.2093,0.00429926,0.0786269,20.8994,124.015,0.1992,0.0,0.0
406,101.25,63.5601,67.5051,142.678,101.387,99.7922,0.00424002,0.0777674,20.9004,124.075,0.146119,0.0,0.0
413,103,63.8207,67.0135,143.072,101.348,99.3055,0.00416364,0.0765672,20.9008,124.085,0.187628,0.0,0.0
420,104.75,63.35,67.1118,144.197,101.227,98.7232,0.00410125,0.0755252,20.9015,124.015,0.230842,0.0,0.0
427,106.5,63.332,66.8181,146.081,101.144,98.5474,0.00396426,0.0745332,20.903,123.995,0.239677,0.0,0.0
434,108.25,63.174,66.8297,146.024,101.044,98.1255,0.00382114,0.0735824,20.9039,123.985,0.270155,0.0,0.0
441,110,63.1135,66.329,140.447,100.962,99.8415,0.00362374,0.0726128,20.9054,124.035,0.102869,0.0,0.0
448,111.75,63.1572,66.8203,140.607,100.854,98.5406,0.00337504,0.0715805,20.9058,123.955,0.213895,0.0,0.0
455,113.5,63.276,66.6973,144.957,100.727,98.9212,0.00326219,0.0708143,20.9059,123.914,0.166696,0.0,0.0
462,115.25,63.2368,66.4192,145.794,100.613,99.3962,0.00326087,0.0698608,20.9068,123.935,0.112116,0.0,0.0
469,117,62.5628,66.1134,147.535,100.506,98.3759,0.00334618,0.0689527,20.9089,123.935,0.197432,0.0,0.0
476,118.75,62.8203,65.7337,145.384,100.439,97.4297,0.00347845,0.06817,20.9099,123.924,0.28042,0.0,0.0
483,120.5,62.2803,66.0498,144.751,100.398,98.7738,0.00354959,0.0676505,20.9103,123.884,0.150369,0.0,0.0
490,122.25,62.4668,66.2639,145.91,100.551,98.767,0.00344996,0.0671456,20.9108,123.864,0.164998,0.0,0.0
497,124,62.5558,65.8646,144.555,100.648,99.105,0.00328804,0.0662707,20.912,123.834,0.142361,0.0,0.0
504,125.75,62.4328,65.905,144.48,100.729,97.1522,0.00310752,0.0654493,20.9126,123.884,0.333204,0.0,0.0
511,127.5,62.7954,66.4624,146.682,100.733,98.8194,0.00293371,0.0647196,20.9128,123.844,0.176809,0.0,0.0
518,129.25,62.1272,65.9372,144.071,100.735,99.1667,0.00282424,0.0644694,20.9141,123.814,0.144586,0.0,0.0
525,131,62.2351,66.0462,145.087,100.678,97.8806,0.00280901,0.0645534,20.9153,123.784,0.259744,0.0,0.0
532,132.75,62.2555,66.1037,145.001,100.599,97.8492,0.00282114,0.0647519,20.9162,123.854,0.255443,0.0,0.0
539,134.5,62.4395,65.9029,146.333,100.484,97.9719,0.00280408,0.064983,20.9167,123.844,0.23337,0.0,0.0
546,136.25,62.6746,66.2724,146.04,100.381,98.9514,0.00277742,0.064881,20.9169,123.814,0.132218,0.0,0.0
553,138,62.0518,66.3769,144.807,100.283,97.6888,0.00271724,0.0645622,20.9158,123.784,0.241561,0.0,0.0
560,139.75,62.2121,66.4951,146.191,100.17,97.4643,0.00263101,0.0640707,20.9153,123.764,0.252366,0.0,0.0
567,141.5,61.9288,66.3136,146.948,100.083,98.7763,0.00260616,0.0635945,20.9162,123.774,0.121153,0.0,0.0
574,143.25,62.6297,66.6132,142.869,100.123,98.3926,0.002654,0.0631488,20.9167,123.714,0.160656,0.0,0.0
581,145,62.0607,66.6631,149.607,100.205,97.0491,0.0027158,0.06296,20.9169,123.694,0.294929,0.0,0.0
588,146.75,62.1488,66.5967,148.449,100.339,97.9423,0.00271297,0.0629396,20.917,123.694,0.222815,0.0,0.0
595,148.5,62.3465,66.2627,142.438,100.454,98.4759,0.00266257,0.0628943,20.9171,123.774,0.183311,0.0,0.0
602,150.25,62.413,66.2132,145.742,100.592,99.2568,0.00260899,0.0629634,20.9171,123.784,0.123206,0.0,0.0
609,152,62.193,66.1442,147.154,100.68,99.3061,0.00262933,0.0630995,20.9185,123.714,0.126664,0.0,0.0
616,153.75,61.9225,65.7836,144.331,100.76,98.9175,0.00276722,0.0629615,20.9199,123.704,0.170097,0.0,0.0
623,155.5,61.628,65.8656,146.873,100.83,98.8083,0.00289523,0.0623877,20.9203,123.594,0.186682,0.0,0.0
629,157,62.2701,65.8467,147.431,100.866,99.7009,0.00294482,0.0618963,20.9205,122.793,0.107109,0.0,0.0

File: Corrugated_Cardboard_HRRPUA_25.csv
Time after Ignition,Corrugated_Cardboard_R1,Corrugated_Cardboard_R2,Corrugated_Cardboard_R3,Mean,Std. Dev.
0.0,8.3,-0.2,13.9,7.3,7.1
0.25,8.2,-0.1,14.1,7.4,7.1
0.5,8.1,-0.0,14.0,7.4,7.0
0.75,7.8,0.0,13.7,7.2,6.8
1.0,7.7,0.1,13.4,7.1,6.7
1.25,7.4,0.1,13.2,6.9,6.6
1.5,7.3,0.1,13.2,6.9,6.6
1.75,6.9,0.0,13.1,6.7,6.6
2.0,6.8,-0.0,13.3,6.7,6.7
2.25,6.7,-0.1,12.9,6.5,6.5
2.5,6.5,-0.0,12.7,6.4,6.3
2.75,6.4,0.0,12.9,6.4,6.4
3.0,6.3,0.1,12.7,6.3,6.3
3.25,6.3,0.1,12.8,6.4,6.3
3.5,6.3,0.2,12.9,6.5,6.4
3.75,6.3,0.2,12.7,6.4,6.2
4.0,6.5,0.3,12.4,6.4,6.1
4.25,6.6,0.3,12.7,6.5,6.2
4.5,6.6,0.3,12.6,6.5,6.2
4.75,6.4,0.4,12.5,6.4,6.1
5.0,6.6,0.4,12.6,6.5,6.1
5.25,6.6,0.4,12.6,6.5,6.1
5.5,6.7,0.4,12.4,6.5,6.0
5.75,6.8,0.5,12.6,6.6,6.1
6.0,6.9,0.5,12.6,6.6,6.0
6.25,7.0,0.5,12.5,6.7,6.0
6.5,7.0,0.5,12.5,6.7,6.0
6.75,7.2,0.5,12.4,6.7,6.0
7.0,7.3,0.6,12.6,6.9,6.0
7.25,7.5,0.7,12.6,6.9,5.9
7.5,8.0,0.9,12.6,7.2,5.9
7.75,8.4,1.0,12.7,7.3,5.9
8.0,8.9,1.0,12.8,7.6,6.0
8.25,9.0,1.1,12.9,7.6,6.0
8.5,9.3,1.2,12.9,7.8,6.0
8.75,9.8,1.2,13.3,8.1,6.2
9.0,10.0,1.3,13.5,8.3,6.3
9.25,10.2,1.8,13.6,8.5,6.1
9.5,10.5,2.3,13.9,8.9,6.0
9.75,10.8,2.7,14.4,9.3,6.0
10.0,12.0,3.1,16.1,10.4,6.7
10.25,13.5,3.5,18.0,11.7,7.5
10.5,14.5,6.1,19.2,13.3,6.6
10.75,15.5,8.3,20.7,14.8,6.2
11.0,16.6,10.5,22.3,16.5,5.9
11.25,19.8,12.7,27.6,20.0,7.5
11.5,23.0,14.2,32.3,23.2,9.0
11.75,25.9,21.2,36.7,27.9,8.0
12.0,28.8,27.2,42.1,32.7,8.2
12.25,31.0,32.4,44.7,36.1,7.5
12.5,37.1,39.0,47.6,41.2,5.6
12.75,44.1,49.2,55.0,49.4,5.5
13.0,48.5,57.7,62.7,56.3,7.2
13.25,54.3,65.6,70.5,63.5,8.3
13.5,58.4,73.3,80.1,70.6,11.1
13.75,69.3,80.2,90.8,80.1,10.8
14.0,79.4,91.9,100.3,90.6,10.5
14.25,88.0,104.0,108.5,100.2,10.8
14.5,95.6,111.4,115.5,107.5,10.5
14.75,107.9,119.5,121.3,116.2,7.3
15.0,120.4,129.3,132.8,127.5,6.4
15.25,130.5,136.8,140.7,136.0,5.1
15.5,139.2,142.1,149.1,143.5,5.1
15.75,145.7,150.1,154.9,150.3,4.6
16.0,155.5,152.4,165.6,157.8,6.9
16.25,160.2,152.1,165.9,159.4,7.0
16.5,165.6,157.1,172.7,165.1,7.8
16.75,174.0,164.4,181.9,173.4,8.8
17.0,177.3,170.1,183.1,176.8,6.5
17.25,180.8,169.1,188.5,179.5,9.8
17.5,186.2,174.1,187.6,182.7,7.4
17.75,186.8,177.8,193.9,186.2,8.1
18.0,193.1,178.5,192.6,188.1,8.3
18.25,194.7,180.6,195.5,190.3,8.3
18.5,199.4,183.5,196.1,193.0,8.4
18.75,205.6,183.2,195.1,194.6,11.2
19.0,203.5,186.2,197.6,195.8,8.8
19.25,200.8,183.5,198.5,194.3,9.4
19.5,202.1,183.3,199.5,195.0,10.2
19.75,206.9,184.1,197.7,196.2,11.5
20.0,206.8,179.0,201.1,195.6,14.7
20.25,204.5,177.9,196.5,192.9,13.6
20.5,202.7,177.0,201.3,193.7,14.5
20.75,205.5,179.7,196.3,193.8,13.1
21.0,202.8,179.6,193.9,192.1,11.7
21.25,201.7,170.4,195.6,189.2,16.6
21.5,197.5,170.8,191.8,186.7,14.1
21.75,193.9,165.2,184.3,181.1,14.6
22.0,192.3,167.0,184.8,181.4,13.0
22.25,190.1,160.5,183.2,177.9,15.4
22.5,188.0,161.0,183.4,177.5,14.4
22.75,185.6,156.2,178.1,173.3,15.3
23.0,184.7,154.9,177.4,172.4,15.5
23.25,180.2,155.9,172.1,169.4,12.3
23.5,175.9,154.2,173.7,168.0,11.9
23.75,176.3,147.4,166.8,163.5,14.7
24.0,170.4,145.2,165.5,160.4,13.3
24.25,171.6,145.1,163.7,160.1,13.6
24.5,163.6,143.8,158.8,155.4,10.3
24.75,162.5,141.3,157.2,153.7,11.0
25.0,161.1,139.4,155.3,152.0,11.2
25.25,157.7,136.5,151.0,148.4,10.8
25.5,155.8,139.6,149.8,148.4,8.2
25.75,151.1,135.7,147.4,144.7,8.0
26.0,146.5,132.4,143.8,140.9,7.5
26.25,147.4,129.7,143.4,140.2,9.3
26.5,144.6,130.3,140.9,138.6,7.4
26.75,143.7,127.5,140.4,137.2,8.5
27.0,138.9,127.6,136.0,134.2,5.8
27.25,139.3,125.2,136.5,133.7,7.5
27.5,136.3,121.4,135.5,131.1,8.3
27.75,133.5,121.4,131.1,128.7,6.4
28.0,129.8,120.7,127.6,126.0,4.7
28.25,129.0,118.0,129.1,125.4,6.4
28.5,126.7,114.9,126.8,122.8,6.8
28.75,125.0,115.9,124.2,121.7,5.0
29.0,123.7,112.2,122.0,119.3,6.2
29.25,124.5,111.1,121.4,119.0,7.0
29.5,122.0,110.5,119.0,117.2,6.0
29.75,120.8,108.2,119.4,116.1,6.9
30.0,117.9,108.5,116.2,114.2,5.0
30.25,116.4,105.7,115.9,112.7,6.1
30.5,117.4,101.9,112.9,110.7,8.0
30.75,116.9,102.4,111.2,110.1,7.3
31.0,115.0,102.3,109.8,109.0,6.4
31.25,112.6,99.7,109.5,107.3,6.7
31.5,113.1,99.0,107.0,106.4,7.1
31.75,111.8,98.6,104.8,105.1,6.6
32.0,111.0,99.4,103.3,104.6,5.9
32.25,111.5,95.4,101.3,102.8,8.1
32.5,112.0,95.6,99.9,102.5,8.5
32.75,111.9,95.5,99.5,102.3,8.6
33.0,109.1,92.9,101.6,101.2,8.1
33.25,109.9,93.1,98.6,100.5,8.6
33.5,113.4,91.7,98.4,101.2,11.1
33.75,109.3,91.9,96.5,99.2,9.0
34.0,110.7,91.0,97.9,99.9,10.0
34.25,108.4,88.5,98.3,98.4,9.9
34.5,109.3,87.8,96.8,98.0,10.8
34.75,108.8,86.9,96.2,97.3,11.0
35.0,109.3,87.7,95.0,97.3,11.0
35.25,108.4,86.2,94.0,96.2,11.2
35.5,107.7,86.6,94.1,96.1,10.7
35.75,109.3,84.8,95.1,96.4,12.3
36.0,111.5,84.9,95.9,97.4,13.4
36.25,108.7,83.9,93.7,95.4,12.5
36.5,109.7,83.5,92.8,95.3,13.2
36.75,109.0,82.5,92.6,94.7,13.4
37.0,109.8,82.9,93.3,95.3,13.6
37.25,110.9,81.6,92.0,94.8,14.8
37.5,112.0,83.2,93.1,96.1,14.6
37.75,112.5,81.9,92.6,95.6,15.5
38.0,113.6,82.8,92.5,96.3,15.8
38.25,113.2,79.7,91.9,94.9,16.9
38.5,112.3,81.3,93.7,95.8,15.6
38.75,115.7,81.1,92.6,96.5,17.6
39.0,115.2,81.0,91.1,95.7,17.6
39.25,113.8,79.3,94.1,95.8,17.3
39.5,115.0,80.2,93.2,96.2,17.6
39.75,116.1,80.7,93.7,96.8,17.9
40.0,115.9,80.5,95.4,97.3,17.7
40.25,115.0,82.2,94.2,97.1,16.6
40.5,116.9,81.7,93.9,97.5,17.9
40.75,117.4,81.6,95.8,98.3,18.0
41.0,117.7,82.3,96.0,98.7,17.8
41.25,116.2,80.7,97.0,98.0,17.8
41.5,117.5,80.8,97.0,98.4,18.4
41.75,118.1,82.7,99.9,100.2,17.7
42.0,117.8,83.3,101.8,101.0,17.2
42.25,117.7,82.3,105.3,101.7,18.0
42.5,118.3,82.8,104.1,101.7,17.9
42.75,116.5,84.9,105.0,102.1,16.0
43.0,116.2,86.0,110.7,104.3,16.1
43.25,115.2,85.6,110.0,103.6,15.8
43.5,116.5,86.5,110.3,104.4,15.8
43.75,113.4,86.9,114.3,104.9,15.5
44.0,114.9,88.1,114.5,105.8,15.3
44.25,114.0,89.0,118.2,107.1,15.8
44.5,113.2,90.4,116.8,106.8,14.3
44.75,112.7,92.0,120.4,108.4,14.7
45.0,112.9,92.0,119.8,108.3,14.5
45.25,113.8,93.2,124.5,110.5,15.9
45.5,112.1,92.9,123.2,109.4,15.3
45.75,110.2,95.0,124.9,110.0,15.0
46.0,111.2,95.5,126.7,111.1,15.6
46.25,110.5,96.4,127.9,111.6,15.8
46.5,109.5,98.1,127.1,111.6,14.6
46.75,109.5,100.0,125.1,111.5,12.7
47.0,109.8,100.9,127.5,112.7,13.5
47.25,108.8,101.5,128.2,112.8,13.8
47.5,108.4,102.7,129.2,113.4,14.0
47.75,106.7,106.5,131.6,114.9,14.4
48.0,106.9,107.5,128.5,114.3,12.3
48.25,108.0,108.0,131.6,115.9,13.6
48.5,108.7,110.6,130.7,116.6,12.2
48.75,106.8,113.1,131.2,117.1,12.6
49.0,106.7,115.5,130.6,117.6,12.1
49.25,106.8,117.1,131.0,118.3,12.1
49.5,104.9,117.9,131.3,118.1,13.2
49.75,106.5,117.4,129.5,117.8,11.5
50.0,106.0,120.9,129.9,118.9,12.1
50.25,106.5,120.8,128.6,118.6,11.2
50.5,103.2,122.6,128.3,118.0,13.1
50.75,105.8,123.2,128.5,119.2,11.9
51.0,104.2,124.2,128.8,119.1,13.0
51.25,105.4,125.4,128.3,119.7,12.4
51.5,104.2,126.8,125.2,118.7,12.6
51.75,104.3,125.6,123.8,117.9,11.8
52.0,102.8,128.3,123.9,118.3,13.6
52.25,104.7,127.8,123.5,118.7,12.3
52.5,104.2,128.4,121.6,118.1,12.5
52.75,104.8,128.8,118.9,117.5,12.1
53.0,102.2,128.6,118.2,116.3,13.3
53.25,101.3,130.5,115.9,115.9,14.6
53.5,100.3,131.5,116.2,116.0,15.6
53.75,98.9,129.9,113.8,114.2,15.5
54.0,99.8,130.9,114.0,114.9,15.6
54.25,99.4,129.0,113.4,113.9,14.8
54.5,99.2,128.8,109.0,112.3,15.1
54.75,97.1,131.9,111.2,113.4,17.5
55.0,98.2,132.0,108.8,113.0,17.3
55.25,95.7,128.1,107.7,110.5,16.4
55.5,96.1,129.7,103.5,109.7,17.7
55.75,94.8,128.7,104.1,109.2,17.5
56.0,93.4,129.6,102.3,108.4,18.8
56.25,92.2,128.2,100.7,107.0,18.8
56.5,92.0,127.1,99.7,106.3,18.5
56.75,91.7,126.2,98.9,105.6,18.2
57.0,91.3,124.4,98.2,104.7,17.5
57.25,90.9,126.0,96.9,104.6,18.8
57.5,87.6,123.8,94.3,101.9,19.2
57.75,87.7,123.7,93.4,101.6,19.3
58.0,87.2,120.7,90.3,99.4,18.5
58.25,85.6,117.6,91.4,98.2,17.0
58.5,83.0,122.1,89.2,98.1,21.0
58.75,84.0,118.1,87.4,96.5,18.8
59.0,82.2,118.7,87.6,96.2,19.7
59.25,82.9,117.4,87.7,96.0,18.7
59.5,81.2,117.4,84.9,94.5,19.9
59.75,79.7,112.3,83.9,92.0,17.7
60.0,77.9,112.9,83.9,91.6,18.7
60.25,79.1,112.6,83.5,91.8,18.2
60.5,76.3,109.3,83.4,89.7,17.4
60.75,75.8,108.4,80.6,88.3,17.6
61.0,74.0,106.8,78.8,86.5,17.7
61.25,73.8,106.7,78.1,86.2,17.9
61.5,72.4,103.5,78.7,84.9,16.4
61.75,72.7,102.6,77.2,84.1,16.1
62.0,70.7,100.7,76.2,82.5,16.0
62.25,68.9,98.0,75.7,80.8,15.3
62.5,70.5,96.6,75.2,80.8,13.9
62.75,68.1,94.7,74.4,79.1,13.9
63.0,67.6,93.3,72.8,77.9,13.6
63.25,66.0,89.9,71.7,75.9,12.5
63.5,64.5,87.1,70.5,74.0,11.7
63.75,63.6,85.4,69.5,72.8,11.3
64.0,62.5,83.4,68.7,71.5,10.7
64.25,62.2,80.8,67.2,70.1,9.6
64.5,61.5,80.0,67.2,69.6,9.5
64.75,59.7,79.1,66.3,68.4,9.9
65.0,59.3,77.1,64.6,67.0,9.2
65.25,58.5,74.4,63.0,65.3,8.2
65.5,57.1,73.7,,65.4,11.8
65.75,56.4,72.6,,64.5,11.5
66.0,55.4,69.6,,62.5,10.0
66.25,55.1,68.0,,61.6,9.1
66.5,53.8,66.5,,60.2,9.0
66.75,53.5,65.5,,59.5,8.5
67.0,52.0,65.6,,58.8,9.6
67.25,51.8,63.7,,57.7,8.4

File: Corrugated_Cardboard_HRRPUA_50.csv
Time after Ignition,Corrugated_Cardboard_R1,Corrugated_Cardboard_R2,Corrugated_Cardboard_R3,Mean,Std. Dev.
0.0,9.2,6.2,3.3,6.2,2.9
0.25,9.2,6.2,3.5,6.3,2.9
0.5,8.9,6.2,3.6,6.2,2.7
0.75,8.9,6.2,3.8,6.3,2.5
1.0,8.7,6.0,4.0,6.2,2.4
1.25,8.8,6.3,4.0,6.4,2.4
1.5,8.5,6.4,4.2,6.3,2.2
1.75,8.7,6.2,4.2,6.4,2.2
2.0,8.7,6.5,4.3,6.5,2.2
2.25,8.7,7.0,4.3,6.7,2.2
2.5,8.5,7.0,4.3,6.6,2.1
2.75,9.1,7.4,4.4,7.0,2.4
3.0,8.9,7.6,4.4,7.0,2.3
3.25,8.7,7.6,4.7,7.0,2.1
3.5,8.7,8.0,4.8,7.2,2.1
3.75,8.8,8.5,5.1,7.5,2.0
4.0,9.2,8.6,5.2,7.7,2.2
4.25,9.2,8.9,5.4,7.8,2.1
4.5,9.5,9.1,5.8,8.1,2.0
4.75,9.3,9.3,6.0,8.2,1.9
5.0,9.3,9.5,6.3,8.4,1.8
5.25,9.6,9.7,6.3,8.5,1.9
5.5,9.5,9.8,6.5,8.6,1.8
5.75,9.5,10.1,6.7,8.8,1.8
6.0,9.6,10.2,6.9,8.9,1.8
6.25,9.5,10.6,6.9,9.0,1.9
6.5,9.9,10.7,7.2,9.3,1.8
6.75,9.6,11.2,7.3,9.4,1.9
7.0,10.1,11.3,7.5,9.6,2.0
7.25,9.8,11.5,7.7,9.7,1.9
7.5,10.1,12.2,8.0,10.1,2.1
7.75,10.0,12.7,8.2,10.3,2.3
8.0,10.4,13.0,8.3,10.6,2.4
8.25,10.6,13.6,8.4,10.8,2.7
8.5,10.9,14.7,8.5,11.4,3.1
8.75,10.9,16.1,8.6,11.9,3.8
9.0,11.4,17.2,8.8,12.5,4.3
9.25,11.8,18.1,8.8,12.9,4.8
9.5,12.2,21.4,8.8,14.2,6.5
9.75,12.8,24.7,8.9,15.5,8.2
10.0,13.0,27.8,9.0,16.6,9.9
10.25,13.1,30.4,10.3,17.9,10.9
10.5,16.2,32.7,11.4,20.1,11.2
10.75,19.1,34.3,12.6,22.0,11.2
11.0,21.7,44.3,13.6,26.5,15.9
11.25,23.7,53.6,14.2,30.5,20.6
11.5,35.0,60.7,15.1,36.9,22.9
11.75,45.6,66.8,15.9,42.7,25.6
12.0,53.3,86.0,16.4,51.9,34.8
12.25,61.7,102.7,27.3,63.9,37.7
12.5,69.1,115.9,31.2,72.1,42.4
12.75,87.4,129.9,35.5,84.2,47.3
13.0,101.3,149.5,39.5,96.8,55.2
13.25,116.2,170.1,40.0,108.8,65.4
13.5,140.5,188.8,50.8,126.7,70.0
13.75,162.4,184.6,61.0,136.0,65.9
14.0,180.5,202.0,70.7,151.1,70.4
14.25,200.1,215.6,93.7,169.8,66.3
14.5,212.6,243.2,112.9,189.6,68.2
14.75,227.9,251.4,132.5,203.9,63.0
15.0,239.1,262.7,148.5,216.8,60.3
15.25,252.2,259.9,166.2,226.1,52.0
15.5,261.3,262.5,180.6,234.8,47.0
15.75,268.4,273.2,192.8,244.8,45.1
16.0,281.0,283.4,203.4,256.0,45.5
16.25,285.0,284.8,218.3,262.7,38.5
16.5,290.3,287.8,226.9,268.3,35.9
16.75,296.5,295.4,236.4,276.1,34.4
17.0,294.2,293.9,244.8,277.6,28.5
17.25,306.9,293.8,249.6,283.4,30.0
17.5,307.5,297.3,257.8,287.5,26.3
17.75,308.3,298.8,265.9,291.0,22.3
18.0,312.6,299.9,269.3,294.0,22.2
18.25,312.8,296.5,269.9,293.0,21.7
18.5,308.7,294.0,279.9,294.2,14.4
18.75,302.7,294.9,280.7,292.7,11.2
19.0,299.4,294.7,281.3,291.8,9.4
19.25,299.1,286.4,280.5,288.7,9.5
19.5,294.6,286.1,274.0,284.9,10.4
19.75,282.5,281.5,277.7,280.6,2.5
20.0,282.1,274.0,278.6,278.2,4.0
20.25,276.0,272.9,278.9,275.9,3.0
20.5,269.8,261.7,273.5,268.3,6.0
20.75,262.5,257.6,261.2,260.4,2.5
21.0,252.2,253.6,258.4,254.7,3.2
21.25,249.3,249.8,251.3,250.1,1.0
21.5,240.5,243.9,250.8,245.1,5.2
21.75,237.6,236.9,242.8,239.1,3.2
22.0,231.4,231.1,230.6,231.0,0.4
22.25,219.1,229.7,233.7,227.5,7.6
22.5,215.6,220.8,220.1,218.8,2.8
22.75,212.0,211.9,215.9,213.3,2.3
23.0,206.6,210.3,209.9,209.0,2.0
23.25,200.6,210.2,205.0,205.3,4.8
23.5,200.0,203.1,204.5,202.5,2.3
23.75,194.2,199.3,197.2,196.9,2.6
24.0,187.8,197.6,189.5,191.6,5.2
24.25,187.0,195.7,189.2,190.6,4.5
24.5,185.6,191.1,186.6,187.8,2.9
24.75,181.9,188.1,184.7,184.9,3.1
25.0,177.3,189.2,185.2,183.9,6.1
25.25,175.0,187.7,179.8,180.8,6.4
25.5,173.9,186.0,179.2,179.7,6.1
25.75,168.1,183.7,173.1,175.0,8.0
26.0,169.2,183.4,176.0,176.2,7.1
26.25,168.3,179.6,174.6,174.2,5.6
26.5,165.6,178.7,168.4,170.9,6.9
26.75,165.8,176.0,172.5,171.4,5.2
27.0,167.1,174.7,168.6,170.1,4.0
27.25,163.7,175.9,166.8,168.8,6.3
27.5,164.0,175.9,166.8,168.9,6.2
27.75,166.5,177.8,166.2,170.2,6.6
28.0,160.9,174.8,166.8,167.5,7.0
28.25,163.8,178.3,166.0,169.4,7.8
28.5,165.5,174.5,164.9,168.3,5.3
28.75,165.5,171.8,164.3,167.2,4.1
29.0,166.0,176.3,166.4,169.6,5.8
29.25,165.3,177.9,167.1,170.1,6.8
29.5,167.2,176.4,167.8,170.5,5.2
29.75,169.1,178.9,167.0,171.6,6.3
30.0,172.5,178.6,164.8,172.0,6.9
30.25,172.2,180.3,166.6,173.0,6.9
30.5,176.3,175.0,169.4,173.6,3.7
30.75,177.4,186.5,170.0,178.0,8.3
31.0,178.9,181.0,172.3,177.4,4.5
31.25,186.2,188.8,170.3,181.8,10.0
31.5,183.7,186.2,171.9,180.6,7.7
31.75,188.4,187.4,175.4,183.7,7.3
32.0,194.3,188.9,179.9,187.7,7.3
32.25,196.0,190.4,177.7,188.0,9.4
32.5,201.9,192.9,180.8,191.9,10.6
32.75,207.6,193.8,186.0,195.8,11.0
33.0,211.6,195.3,187.1,198.0,12.5
33.25,218.7,199.2,185.8,201.2,16.6
33.5,222.3,205.3,191.6,206.4,15.4
33.75,222.6,208.7,195.0,208.8,13.8
34.0,229.0,210.5,198.8,212.8,15.2
34.25,232.3,214.3,203.2,216.6,14.7
34.5,238.7,214.8,205.4,219.6,17.2
34.75,238.1,213.7,213.7,221.8,14.1
35.0,242.5,219.7,210.0,224.1,16.7
35.25,245.3,219.4,214.0,226.2,16.7
35.5,250.8,221.2,217.4,229.8,18.3
35.75,247.2,222.1,225.8,231.7,13.5
36.0,251.2,224.0,217.6,230.9,17.8
36.25,255.7,223.5,224.8,234.7,18.2
36.5,253.1,227.8,221.8,234.2,16.6
36.75,254.4,225.5,227.8,235.9,16.1
37.0,254.1,229.1,227.8,237.0,14.8
37.25,258.9,232.5,230.4,240.6,15.9
37.5,253.2,228.4,230.1,237.2,13.8
37.75,258.4,225.9,229.9,238.0,17.7
38.0,257.3,226.4,232.7,238.8,16.4
38.25,257.1,228.3,228.2,237.9,16.7
38.5,255.6,233.9,227.2,238.9,14.8
38.75,249.6,228.1,224.5,234.1,13.6
39.0,248.9,222.9,221.8,231.2,15.3
39.25,250.0,223.4,222.9,232.1,15.5
39.5,247.1,222.2,221.2,230.2,14.7
39.75,238.5,220.9,218.4,225.9,10.9
40.0,240.9,216.5,211.6,223.0,15.7
40.25,236.8,216.4,211.2,221.5,13.5
40.5,232.0,215.1,207.6,218.3,12.5
40.75,228.3,206.9,203.7,213.0,13.4
41.0,224.9,206.9,198.5,210.1,13.5
41.25,226.1,203.8,193.9,207.9,16.5
41.5,215.4,197.6,190.0,201.0,13.0
41.75,211.9,198.1,184.3,198.1,13.8
42.0,205.8,195.3,180.7,193.9,12.6
42.25,201.4,189.3,178.2,189.6,11.6
42.5,196.2,186.4,172.3,184.9,12.0
42.75,191.8,180.5,170.6,181.0,10.6
43.0,187.2,183.4,171.8,180.8,8.0
43.25,182.1,174.4,164.4,173.6,8.8
43.5,174.6,172.0,162.5,169.7,6.4
43.75,170.4,167.1,156.1,164.5,7.5
44.0,166.4,162.6,154.2,161.1,6.3
44.25,162.4,159.9,148.3,156.8,7.5
44.5,159.8,158.5,146.4,154.9,7.4
44.75,151.7,154.2,141.3,149.1,6.8
45.0,148.7,154.1,140.3,147.7,7.0
45.25,143.7,150.1,136.7,143.5,6.7
45.5,137.9,148.6,131.5,139.3,8.6
45.75,132.9,142.1,129.9,134.9,6.4
46.0,128.7,143.9,127.5,133.4,9.2
46.25,125.1,139.0,124.4,129.5,8.2
46.5,120.7,137.4,124.9,127.6,8.7
46.75,115.5,135.8,119.8,123.7,10.7
47.0,112.9,131.9,117.4,120.7,9.9
47.25,108.8,130.2,116.0,118.3,10.9
47.5,106.4,127.5,112.8,115.6,10.8
47.75,102.7,125.0,111.5,113.0,11.2
48.0,99.5,122.0,109.2,110.2,11.3
48.25,96.0,119.4,105.6,107.0,11.7
48.5,93.7,119.4,106.3,106.5,12.8
48.75,91.7,117.0,103.6,104.1,12.6
49.0,88.2,113.9,100.8,100.9,12.9
49.25,86.0,113.6,97.7,99.1,13.8
49.5,83.1,110.4,95.6,96.4,13.6
49.75,81.1,107.8,96.0,95.0,13.3
50.0,78.3,105.4,91.4,91.7,13.6
50.25,75.6,,89.4,82.5,9.8
50.5,73.6,,87.7,80.7,10.0
50.75,72.0,,87.2,79.6,10.8
51.0,70.7,,,70.7,
51.25,68.0,,,68.0,
51.5,68.0,,,68.0,
51.75,66.1,,,66.1,
52.0,63.7,,,63.7,
52.25,62.4,,,62.4,