Folder: fsri_materials_database/01_Data/Corrugated_Cardboard/Cone (part 3)

File: Corrugated_Cardboard_Cone_HF50Scan_250211_R2.csv
Names,Time,Stack TC,Smoke TC,Exh Press,Smoke Comp,Smoke Meas,CO Meter,CO2 Meter,O2 Meter,Sample Mass,Ext Coeff,Start Test,Flame Verif
Chan Gain,,500,500,1,1,1,1,1,1,1,1,1.0,1.0
Offset,,0,0,0.131183,0,0,0,0,0,0,0,0.0,0.0
Gain,,1,1,25.011,13.1923,20.2122,1,1,1,1.00092,1.05074,1.0,1.0
Units,sec,C,C,Pa,%,%,%,%,%,g,/m,,
Baseline,,45.3828,47.7591,154.014,100.869,102.057,0.000694603,0.0471826,20.9332,-435.293,-0.107842,,
8,1.75,45.1697,47.7367,148.318,100.216,101.546,0.000509018,0.0521401,20.9246,142.472,-0.121532,0.0,0.0
16,3.75,44.9395,47.3158,150.004,100.142,101.009,0.000543893,0.0524619,20.9231,142.412,-0.0794532,0.0,0.0
24,5.75,45.3902,47.663,154.022,100.088,100.907,0.000607325,0.0525891,20.9221,142.352,-0.0751281,0.0,0.0
32,7.75,45.3194,48.3394,147.958,100.006,96.4169,0.000602608,0.0533892,20.9209,142.061,0.336823,0.0,1.0
40,9.75,46.7187,53.7628,118.004,99.9648,89.8637,0.000500401,0.0562617,20.9193,141.401,0.981832,0.0,1.0
48,11.75,50.9736,64.5699,135.056,99.9507,88.9379,0.000399085,0.0607014,20.9154,140.88,1.07599,0.0,1.0
56,13.75,52.6073,69.1383,134.141,99.9475,93.7849,0.000405393,0.0664699,20.9119,140.54,0.586582,0.0,1.0
64,15.75,54.2541,71.8925,138.542,99.9306,97.7869,0.000585968,0.0815464,20.9067,140.27,0.199877,0.0,1.0
72,17.75,55.5121,72.9068,141.775,99.9934,96.5316,0.00149481,0.155358,20.882,140.039,0.324748,0.0,1.0
80,19.75,55.6379,72.6857,142.051,100.073,97.9275,0.00305297,0.377864,20.7948,139.889,0.199768,0.0,0.0
88,21.75,56.3804,72.3074,137.865,100.153,96.9492,0.00492972,0.544136,20.5423,139.679,0.299645,0.0,0.0
96,23.75,56.9141,72.4614,140.46,100.23,97.6931,0.00570735,0.605414,20.3578,139.469,0.236268,0.0,0.0
104,25.75,57.5496,72.7906,138.445,100.351,95.7711,0.00538094,0.558765,20.298,139.209,0.430586,0.0,0.0
112,27.75,57.9111,73.3043,140.861,100.464,96.1122,0.00448906,0.480012,20.3401,138.978,0.408165,0.0,0.0
120,29.75,58.8496,74.4816,136.245,100.574,95.7248,0.00374775,0.411845,20.4257,138.708,0.455465,0.0,0.0
128,31.75,60.0173,76.298,135.239,100.675,93.0225,0.00337419,0.370965,20.5045,138.378,0.728697,0.0,0.0
136,33.75,60.67,77.4853,140.13,100.799,93.6788,0.00321949,0.354954,20.545,138.088,0.675169,0.0,0.0
144,35.75,61.4444,78.2146,144.11,100.926,96.5359,0.0031954,0.356847,20.5624,137.897,0.40992,0.0,0.0
152,37.75,61.5725,77.4043,145.5,101.062,97.7505,0.00316252,0.375904,20.5619,137.727,0.30703,0.0,0.0
160,39.75,61.472,75.677,143.397,101.152,98.6751,0.00309115,0.410644,20.5412,137.587,0.22855,0.0,0.0
168,41.75,61.2282,74.1006,149.817,101.27,99.5874,0.00310529,0.435367,20.5059,137.517,0.154433,0.0,0.0
176,43.75,60.672,72.3696,148.047,101.336,99.6053,0.00322949,0.44463,20.476,137.457,0.158785,0.0,0.0
184,45.75,59.5497,69.6811,145.861,101.458,100.983,0.00330268,0.428302,20.4654,137.407,0.0431982,0.0,0.0
192,47.75,58.9047,67.7558,150.394,101.542,101.265,0.00324628,0.387503,20.4833,137.337,0.025183,0.0,0.0
200,49.75,58.7527,65.4134,151.622,101.601,102.145,0.00312826,0.337464,20.5318,137.347,-0.049161,0.0,0.0
208,51.75,58.1848,63.5018,146.864,101.655,101.614,0.00309214,0.293355,20.5898,137.287,0.00372291,0.0,0.0
216,53.75,57.405,62.0763,146.036,101.68,101.721,0.00335789,0.254752,20.6411,137.267,-0.0036876,0.0,0.0
224,55.75,56.5153,60.8051,150.378,101.708,102.232,0.00406972,0.220354,20.6805,137.287,-0.0473683,0.0,0.0
232,57.75,56.1208,59.5742,151.841,101.713,101.075,0.00511998,0.19365,20.7167,137.247,0.0579348,0.0,0.0
240,59.75,54.1123,57.1627,151.652,101.721,102.234,0.00608837,0.176149,20.7437,137.237,-0.0463512,0.0,0.0
248,61.75,53.2237,56.4421,148.426,101.682,101.107,0.00695512,0.164047,20.7635,137.197,0.0523308,0.0,0.0
256,63.75,53.1469,55.6524,146.574,101.66,101.258,0.00765348,0.157249,20.7777,137.137,0.0364645,0.0,0.0
264,65.75,52.6668,54.8105,149.264,101.628,102.441,0.00817088,0.153042,20.7867,137.137,-0.0734472,0.0,0.0
272,67.75,52.6438,54.5591,150.602,101.565,101.995,0.00833923,0.148388,20.7918,137.127,-0.038913,0.0,0.0
280,69.75,51.9064,54.0068,154.818,101.525,102.532,0.00818373,0.143083,20.7974,137.107,-0.0909541,0.0,0.0
288,71.75,51.1732,52.7814,150.056,101.472,101.458,0.00802155,0.138604,20.8037,137.117,0.00126567,0.0,0.0
296,73.75,51.254,52.7872,149.181,101.408,101.827,0.00777588,0.133647,20.811,137.087,-0.0379988,0.0,0.0
304,75.75,51.5146,52.1197,155.225,101.356,102.055,0.00749726,0.128752,20.817,137.037,-0.063337,0.0,0.0
312,77.75,50.5858,51.9163,150.465,101.294,101.605,0.00731394,0.124024,20.8225,137.027,-0.0282757,0.0,0.0
320,79.75,50.6129,52.5482,150.731,101.211,101.647,0.00722075,0.119608,20.8293,137.007,-0.0396297,0.0,0.0
328,81.75,50.3176,51.8926,153.741,101.152,102.584,0.00708006,0.116138,20.8354,136.997,-0.129518,0.0,0.0
336,83.75,50.5136,51.5852,149.901,101.088,101.149,0.00689324,0.11381,20.8383,136.977,-0.00557125,0.0,0.0
344,85.75,50.0094,51.2149,151.646,101.047,101.301,0.006734,0.111646,20.8406,136.957,-0.023095,0.0,0.0
352,87.75,49.6879,51.4032,150.199,100.98,101.411,0.00657453,0.109097,20.8446,136.937,-0.0392148,0.0,0.0
360,89.75,49.6429,51.1005,152.641,100.934,101.071,0.00640265,0.1064,20.8485,136.917,-0.0125194,0.0,0.0
368,91.75,49.3579,51.1667,152.877,100.878,101.846,0.00621179,0.104092,20.8513,136.906,-0.0880112,0.0,0.0
376,93.75,49.1904,50.9935,149.954,100.841,101.8,0.00614366,0.102336,20.8544,136.896,-0.0872082,0.0,0.0
384,95.75,48.9098,50.1466,151.826,100.773,101.524,0.00609779,0.101282,20.857,136.866,-0.0684685,0.0,0.0
392,97.75,49.4628,51.0946,152.672,100.728,101.978,0.00593029,0.0995065,20.8586,136.836,-0.11368,0.0,0.0
400,99.75,49.0465,50.6849,152.213,100.686,101.409,0.00572112,0.0978506,20.8602,136.826,-0.0659478,0.0,0.0
408,101.75,48.5679,50.6525,152.952,100.781,101.709,0.00554009,0.0960688,20.8628,136.756,-0.0845165,0.0,0.0
416,103.75,48.8528,50.808,149.534,100.847,101.724,0.00555312,0.0943125,20.8647,136.756,-0.0798582,0.0,0.0
424,105.75,48.5621,50.6257,147.399,100.922,102.042,0.00565709,0.0927705,20.8662,136.736,-0.101682,0.0,0.0
432,107.75,48.5027,50.3203,152.768,100.962,101.644,0.00571129,0.0912897,20.869,136.726,-0.062035,0.0,0.0
440,109.75,48.3318,50.0554,149.56,101.039,101.915,0.00566917,0.0904866,20.8714,136.696,-0.0795595,0.0,0.0
448,111.75,48.004,50.4632,151.068,101.068,102.43,0.00556041,0.0897044,20.8736,136.716,-0.123359,0.0,0.0
456,113.75,48.0629,49.991,156.224,101.073,102.586,0.00542322,0.0888022,20.8747,136.696,-0.136914,0.0,0.0
464,115.75,48.2101,50.258,154.729,101.098,101.899,0.00523291,0.0880618,20.8762,136.666,-0.0726925,0.0,0.0
472,117.75,48.4977,49.897,151.91,101.083,102.219,0.0050242,0.0874356,20.8771,136.646,-0.102962,0.0,0.0
480,119.75,48.5569,50.0491,153.637,101.05,102.085,0.00480299,0.0868383,20.8775,136.656,-0.0939323,0.0,0.0
488,121.75,48.779,50.1914,148.071,101.046,101.651,0.00460691,0.0858965,20.8777,136.646,-0.0550649,0.0,0.0
496,123.75,48.2431,49.7884,153.326,100.991,102.301,0.00456904,0.0854794,20.879,136.616,-0.118767,0.0,0.0
504,125.75,48.1324,49.9943,149.195,100.945,101.898,0.00469789,0.0852266,20.8796,136.626,-0.086632,0.0,0.0
512,127.75,47.7385,50.2928,150.026,100.892,101.389,0.00476833,0.084962,20.8799,136.656,-0.0453033,0.0,0.0
520,129.75,47.9025,50.0545,149.418,100.832,102.168,0.00461605,0.0843499,20.8805,136.666,-0.121299,0.0,0.0
528,131.75,47.8257,49.8398,151.805,100.727,101.838,0.00433424,0.0832125,20.8799,136.646,-0.101164,0.0,0.0
536,133.75,47.782,50.0513,153.022,100.648,102.126,0.0041618,0.0824792,20.8803,136.626,-0.134365,0.0,0.0
544,135.75,47.513,49.6928,153.505,100.58,102.237,0.00418455,0.0823137,20.8811,136.636,-0.150596,0.0,0.0
552,137.75,47.729,50.1259,149.886,100.468,101.047,0.00424836,0.0823045,20.8815,136.606,-0.0530329,0.0,0.0
560,139.75,47.8057,49.5393,154.51,100.408,102.129,0.00426686,0.0819988,20.8817,136.586,-0.156607,0.0,0.0
568,141.75,48.0011,50.0209,155.328,100.353,101.002,0.00423343,0.0817427,20.8817,136.496,-0.0594381,0.0,0.0
576,143.75,47.4575,49.591,156.405,100.392,102.236,0.00409056,0.0814297,20.8818,136.506,-0.167803,0.0,0.0
584,145.75,47.6995,49.7784,150.747,100.416,101.211,0.00395102,0.0808082,20.8827,136.506,-0.0727152,0.0,0.0
592,147.75,47.6713,49.5462,149.164,100.463,101.205,0.00387339,0.0802998,20.8834,136.526,-0.067775,0.0,0.0
600,149.75,47.6177,49.8799,148.5,100.495,101.548,0.00376223,0.0790233,20.8838,136.536,-0.0960394,0.0,0.0
608,151.75,47.1422,49.8032,158.096,100.542,101.886,0.00364251,0.0776732,20.8855,136.496,-0.122405,0.0,0.0
616,153.75,47.5356,49.9675,156.243,100.638,101.482,0.00353302,0.0773261,20.8879,136.486,-0.0770402,0.0,0.0
624,155.75,47.2796,49.9492,152.677,100.701,102.674,0.00340396,0.0771137,20.8895,136.466,-0.178859,0.0,0.0
632,157.75,47.0944,49.7871,151.894,100.771,101.71,0.00327305,0.0767694,20.8908,136.456,-0.0854929,0.0,0.0
640,159.75,47.687,49.9101,155.599,100.834,101.533,0.00306508,0.0763595,20.8921,136.466,-0.0636756,0.0,0.0
648,161.75,47.6626,50.1797,153.909,100.879,102.274,0.00295371,0.0756111,20.8926,136.446,-0.126597,0.0,0.0
656,163.75,47.6313,50.0961,151.957,100.942,102.293,0.00300459,0.0748358,20.8928,136.366,-0.122491,0.0,0.0
664,165.75,47.4099,50.1603,151.762,100.961,102.403,0.00299054,0.0740908,20.8942,136.366,-0.130707,0.0,0.0
672,167.75,47.5903,50.1452,146.848,101.015,101.706,0.0029555,0.073021,20.8951,136.346,-0.0628326,0.0,0.0
680,169.75,47.606,49.9403,157.15,101.027,101.812,0.00295761,0.0720032,20.8965,136.356,-0.0713404,0.0,0.0
688,171.75,47.5373,50.1343,149.781,101.057,102.242,0.00288248,0.0712196,20.898,136.346,-0.10737,0.0,0.0
696,173.75,47.5268,50.0968,152.333,101.082,101.352,0.0027342,0.0705281,20.8991,136.326,-0.0245579,0.0,0.0
704,175.75,47.2799,49.8176,152.068,101.088,101.94,0.00264429,0.0699349,20.8996,136.316,-0.0773111,0.0,0.0
712,177.75,47.5259,49.7764,149.044,101.073,101.942,0.00259124,0.0692083,20.8997,136.326,-0.0789655,0.0,0.0

File: Corrugated_Cardboard_Cone_HF50Scan_250211_R3.csv
Names,Time,Stack TC,Smoke TC,Exh Press,Smoke Comp,Smoke Meas,CO Meter,CO2 Meter,O2 Meter,Sample Mass,Ext Coeff,Start Test,Flame Verif
Chan Gain,,500,500,1,1,1,1,1,1,1,1,1.0,1.0
Offset,,0,0,0.131183,0,0,0,0,0,0,0,0.0,0.0
Gain,,1,1,25.011,13.1923,20.2122,1,1,1,1.00092,1.05074,1.0,1.0
Units,sec,C,C,Pa,%,%,%,%,%,g,/m,,
Baseline,,51.4023,54.4411,151.67,100.052,105.069,0.000784869,0.0525633,20.9145,-437.003,-0.450885,,
8,1.75,49.6316,51.4229,149.07,99.1588,103.971,0.000467804,0.0550976,20.9148,133.043,-0.4368,0.0,0.0
16,3.75,49.2113,51.4394,150.764,99.1246,104.373,0.000540156,0.0574052,20.9129,132.793,-0.475565,0.0,0.0
24,5.75,49.6585,51.8722,151.092,99.1005,103.528,0.000652643,0.0594633,20.9102,132.773,-0.402882,0.0,0.0
32,7.75,49.64,52.7238,144.962,99.0618,98.5715,0.000697597,0.0614477,20.9064,132.442,0.045735,0.0,1.0
40,9.75,52.2694,59.9556,123.925,99.0687,90.7211,0.000673272,0.0643657,20.9048,131.762,0.811307,0.0,1.0
48,11.75,55.8229,70.8092,129.282,99.0421,90.6212,0.000651105,0.0668328,20.9008,131.261,0.818992,0.0,1.0
56,13.75,58.2762,76.4544,130.971,99.0284,96.082,0.00062202,0.0671831,20.8984,130.861,0.2784,0.0,1.0
64,15.75,59.6667,78.1335,141.294,99.0034,100.423,0.000806433,0.0749263,20.896,130.651,-0.131181,0.0,1.0
72,17.75,60.055,77.7342,143.435,99.0063,100.733,0.00146991,0.171593,20.8862,130.441,-0.159408,0.0,0.0
80,19.75,61.1813,77.8335,141.57,99.0167,98.5061,0.002981,0.39696,20.8318,130.26,0.0476547,0.0,0.0
88,21.75,61.3144,77.3894,138.408,98.9893,98.7059,0.00421949,0.583313,20.5987,130.04,0.0264244,0.0,0.0
96,23.75,61.775,77.8921,140.854,98.9982,98.7177,0.00506541,0.62697,20.3962,129.85,0.0261549,0.0,0.0
104,25.75,62.9157,77.6807,136.32,98.9865,98.627,0.00513386,0.540022,20.3071,129.63,0.0335387,0.0,0.0
112,27.75,63.0093,78.6372,136.726,99.001,97.0973,0.00463726,0.44748,20.3578,129.34,0.178966,0.0,0.0
120,29.75,64.0654,80.7758,131.245,99.026,94.3789,0.00406276,0.382647,20.4529,128.979,0.443012,0.0,0.0
128,31.75,65.4446,82.7895,137.165,99.0449,93.6893,0.00368166,0.356313,20.5158,128.689,0.512367,0.0,0.0
136,33.75,66.1791,84.3651,137.197,99.0252,95.6934,0.00322356,0.348111,20.5515,128.479,0.315454,0.0,0.0
144,35.75,66.5646,83.5069,142.658,99.0574,99.2247,0.00275022,0.355988,20.563,128.319,-0.0155549,0.0,0.0
152,37.75,66.591,82.4645,146.299,99.0811,101.253,0.00256302,0.387664,20.5549,128.168,-0.199838,0.0,0.0
160,39.75,66.4973,80.9883,144.304,99.0924,101.437,0.00279917,0.440666,20.5213,128.048,-0.215563,0.0,0.0
168,41.75,65.4157,78.4819,140.264,99.1154,101.568,0.00330282,0.477025,20.4672,127.978,-0.225304,0.0,0.0
176,43.75,65.3422,76.9966,145.658,99.1371,102.763,0.00367757,0.45834,20.4381,127.858,-0.331073,0.0,0.0
184,45.75,64.842,75.1709,144.365,99.152,102.256,0.0037826,0.405255,20.449,127.808,-0.284155,0.0,0.0
192,47.75,64.1475,72.6169,147.721,99.1822,102.554,0.00357074,0.344949,20.5035,127.738,-0.308163,0.0,0.0
200,49.75,63.3232,70.7117,150.314,99.2144,102.775,0.00322303,0.299568,20.5627,127.668,-0.32494,0.0,0.0
208,51.75,62.3456,68.5924,150.286,99.2345,102.473,0.0029723,0.258049,20.6279,127.618,-0.29598,0.0,0.0
216,53.75,62.1476,67.2799,148.882,99.2575,102.774,0.00304431,0.223845,20.6738,127.608,-0.320884,0.0,0.0
224,55.75,61.432,66.0615,150.059,99.2603,103.179,0.00352808,0.195468,20.7091,127.598,-0.35684,0.0,0.0
232,57.75,60.5594,64.3661,149.943,99.2961,103.256,0.00431968,0.168716,20.7428,127.598,-0.360453,0.0,0.0
240,59.75,59.4599,62.0915,150.646,99.3303,103.535,0.00525598,0.148188,20.7753,127.578,-0.382131,0.0,0.0
248,61.75,58.333,60.9136,146.822,99.3899,104.2,0.00623839,0.133711,20.7976,127.578,-0.435609,0.0,0.0
256,63.75,58.1187,60.2756,149.935,99.4165,103.855,0.00704474,0.123883,20.8139,127.528,-0.40254,0.0,0.0
264,65.75,57.537,59.8827,144.767,99.4684,103.549,0.00766227,0.117791,20.8249,127.528,-0.370589,0.0,0.0
272,67.75,57.1087,59.2883,150.517,99.4966,104.525,0.00808324,0.113932,20.8322,127.528,-0.45443,0.0,0.0
280,69.75,56.7437,58.8182,150.696,99.5546,103.595,0.00827099,0.111339,20.8373,127.478,-0.366672,0.0,0.0
288,71.75,56.2651,58.2673,146.833,99.5957,103.889,0.0082097,0.109436,20.8407,127.488,-0.388956,0.0,0.0
296,73.75,56.2009,58.2,151.277,99.6299,104.125,0.00804387,0.108323,20.843,127.468,-0.406726,0.0,0.0
304,75.75,55.9928,57.7762,147.142,99.6726,103.96,0.00784051,0.107441,20.8444,127.488,-0.388189,0.0,0.0
312,77.75,55.7175,57.4387,149.136,99.7261,104.531,0.00767062,0.106634,20.845,127.458,-0.43374,0.0,0.0
320,79.75,55.1476,57.1728,151.602,99.7499,104.317,0.00751191,0.106064,20.8457,127.438,-0.412652,0.0,0.0
328,81.75,55.4706,56.6127,151.489,99.8199,104.697,0.00730934,0.105537,20.8469,127.418,-0.439639,0.0,0.0
336,83.75,54.7599,56.1209,149.131,99.8755,103.332,0.00709284,0.104775,20.8474,127.408,-0.313604,0.0,0.0
344,85.75,54.6409,56.4026,145.278,99.9073,103.94,0.00684914,0.103979,20.8491,127.388,-0.364705,0.0,0.0
352,87.75,54.4838,56.3997,149.785,99.9612,104.824,0.00660669,0.103077,20.8496,127.378,-0.437835,0.0,0.0
360,89.75,54.2533,56.7479,149.776,100.015,104.606,0.00621234,0.101743,20.8511,127.348,-0.413678,0.0,0.0
368,91.75,53.9527,56.5391,150.823,100.068,104.135,0.00590387,0.100611,20.8534,127.358,-0.367165,0.0,0.0
376,93.75,54.1159,56.1849,146.725,100.089,104.5,0.00575635,0.0998912,20.8555,127.378,-0.397556,0.0,0.0
384,95.75,54.135,55.8333,148.228,100.131,105.228,0.00565151,0.0992324,20.8564,127.388,-0.457622,0.0,0.0
392,97.75,53.494,55.8435,151.926,100.171,104.721,0.00554056,0.0984239,20.8568,127.328,-0.409415,0.0,0.0
400,99.75,53.6127,55.8801,150.085,100.218,104.695,0.00544466,0.0970978,20.8574,127.268,-0.402784,0.0,0.0
408,101.75,53.0927,55.6032,149.26,100.243,104.956,0.0052756,0.0952213,20.86,127.278,-0.423393,0.0,0.0
416,103.75,53.5247,55.2479,149.536,100.304,105.054,0.00513827,0.093977,20.8609,127.298,-0.426505,0.0,0.0
424,105.75,52.7774,55.4579,153.514,100.334,104.629,0.0051201,0.0930557,20.8614,127.258,-0.386278,0.0,0.0
432,107.75,53.4701,54.9704,150.299,100.377,104.856,0.00511292,0.0920212,20.862,127.248,-0.402424,0.0,0.0
440,109.75,53.1918,54.9246,145.413,100.436,104.73,0.00508543,0.0900277,20.8639,127.218,-0.385869,0.0,0.0
448,111.75,52.6166,55.2108,150.495,100.466,104.919,0.0049743,0.0880234,20.8669,127.218,-0.399732,0.0,0.0
456,113.75,52.5,54.9059,149.964,100.501,105.421,0.00478657,0.0867705,20.8707,127.168,-0.440576,0.0,0.0
464,115.75,52.9696,54.9841,147.781,100.521,104.937,0.00463693,0.0861275,20.8729,127.147,-0.396298,0.0,0.0
472,117.75,52.7336,54.7034,149.179,100.559,105.258,0.0046136,0.0852674,20.8739,127.067,-0.420975,0.0,0.0
480,119.75,52.7088,55.1652,151.868,100.571,106.026,0.00464527,0.0842076,20.8754,127.067,-0.486907,0.0,0.0
488,121.75,52.5431,54.5404,146.841,100.591,105.363,0.00465208,0.0831469,20.8774,127.087,-0.427239,0.0,0.0
496,123.75,52.2296,54.5434,149.806,100.627,105.571,0.00464187,0.0824057,20.8784,127.107,-0.442122,0.0,0.0
504,125.75,51.9028,54.2845,149.056,100.663,105.389,0.00461063,0.0812761,20.8802,127.067,-0.42285,0.0,0.0
512,127.75,52.3015,54.4924,148.906,100.697,104.911,0.00459126,0.0802953,20.8823,127.067,-0.377868,0.0,0.0
520,129.75,52.0735,54.1885,144.163,100.697,105.616,0.00466137,0.0797445,20.8832,127.077,-0.439549,0.0,0.0
528,131.75,52.3448,54.6075,147.391,100.736,106.357,0.004746,0.0791688,20.8836,127.027,-0.500452,0.0,0.0
536,133.75,51.4725,54.1067,153.925,100.756,105.622,0.00466289,0.0784292,20.885,126.987,-0.434798,0.0,0.0
544,135.75,52.4756,54.5285,148.861,100.789,104.598,0.00450354,0.0778768,20.8859,126.997,-0.341862,0.0,0.0
552,137.75,52.0767,54.0087,148.647,100.789,105.783,0.00440066,0.0774198,20.8872,126.987,-0.44578,0.0,0.0
560,139.75,52.2757,54.558,148.537,100.828,105.669,0.004462,0.0773357,20.8878,126.997,-0.432225,0.0,0.0
568,141.75,51.695,54.4395,150.598,100.823,105.756,0.00442172,0.0774339,20.888,127.017,-0.440286,0.0,0.0
576,143.75,51.8246,54.3187,148.944,100.869,105.782,0.00424511,0.0774748,20.8881,126.997,-0.438295,0.0,0.0
584,145.75,52.239,54.4511,148.713,100.875,105.76,0.00414667,0.0772961,20.8881,126.987,-0.435862,0.0,0.0
592,147.75,51.6869,54.707,153.909,100.892,105.998,0.00409724,0.0769941,20.8882,126.927,-0.455081,0.0,0.0
600,149.75,51.6662,54.923,149.813,100.928,104.933,0.00403925,0.0766148,20.8882,126.967,-0.358728,0.0,0.0
608,151.75,51.8809,54.6726,149.485,100.91,105.167,0.00405749,0.0765232,20.889,126.927,-0.380894,0.0,0.0
616,153.75,51.7949,54.7858,150.016,100.926,105.501,0.00407482,0.0762457,20.8891,127.037,-0.408586,0.0,0.0
624,155.75,51.6912,54.5453,149.46,100.947,105.278,0.00381424,0.0756933,20.8899,126.957,-0.3872,0.0,0.0
632,157.75,51.3088,54.0261,148.904,100.951,105.709,0.00346735,0.0751898,20.8913,126.947,-0.424449,0.0,0.0
640,159.75,52.0769,54.4809,148.946,100.975,105.654,0.00332241,0.0748931,20.8923,126.937,-0.41753,0.0,0.0
648,161.75,51.8785,54.4025,151.476,100.963,105.824,0.00331348,0.0744875,20.893,126.897,-0.433398,0.0,0.0
656,163.75,51.2278,55.2146,149.573,100.971,105.849,0.00332773,0.0737245,20.8933,126.917,-0.434866,0.0,0.0
664,165.75,52.0027,54.6401,152.64,100.966,105.89,0.00334468,0.0732578,20.8934,126.907,-0.438888,0.0,0.0
672,167.75,51.853,54.0853,150.105,100.964,105.91,0.00319994,0.0730872,20.8934,126.897,-0.440807,0.0,0.0
680,169.75,51.4376,54.1377,151.447,100.964,105.775,0.00301046,0.0730872,20.8935,126.847,-0.42908,0.0,0.0
688,171.75,51.5697,54.201,149.165,100.95,105.34,0.00288944,0.0728677,20.8935,126.857,-0.392342,0.0,0.0
696,173.75,51.3997,53.9876,151.871,100.95,105.623,0.00263835,0.0723847,20.8932,126.877,-0.417118,0.0,0.0
704,175.75,51.5215,54.421,149.882,100.935,105.341,0.00248969,0.0719779,20.8933,126.757,-0.393755,0.0,0.0
710,177.25,51.4279,54.164,147.29,100.937,105.484,0.00247521,0.071669,20.894,126.847,-0.406175,0.0,0.0

File: Corrugated_Cardboard_Cone_HF75Scalar_250211_R1.csv
LABORATORY,FSRI
TEST IDENT,Cardboard_HF75_R1
OPERATOR,Marino
MATERIAL,Cardboard
ORIENTATION,Horizontal
HEAT FLUX,75
SURF AREA,0.01
C FACTOR,0.040382
SPEC HOLDER DIFF,-566
SPECIMEN MASS,6.01
SCAN TIME,0.25
O2 DELAY TIME,11
CO DELAY TIME,11
CO2 DELAY TIME,8
FLOW FACTOR,1
SCAN COUNT,662
TIME TO IGN,3.75
END OF TEST SCAN,182
END OF TEST TIME,45.5
TEST STATUS,1
PRE TEST CMT,Dimensions: 100.66 x 101.23 x 3.49 mm; with calcium silicate substrate; with tie wires;
POST TEST CMT,Sample charred and became ash. Sample smoldered when removed.

File: Corrugated_Cardboard_Cone_HF75Scalar_250211_R2.csv
LABORATORY,FSRI
TEST IDENT,Cardboard_HF75_R2
OPERATOR,Marino
MATERIAL,Cardboard
ORIENTATION,Horizontal
HEAT FLUX,75
SURF AREA,0.01
C FACTOR,0.040382
SPEC HOLDER DIFF,-566
SPECIMEN MASS,6
SCAN TIME,0.25
O2 DELAY TIME,11
CO DELAY TIME,11
CO2 DELAY TIME,8
FLOW FACTOR,1
SCAN COUNT,650
TIME TO IGN,3
END OF TEST SCAN,170
END OF TEST TIME,42.5
TEST STATUS,1
PRE TEST CMT,Dimensions: 100.63 x 100.89 x 3.30 mm; with calcium silicate substrate; with tie wires;
POST TEST CMT,Sample charred and became ash. Sample smoldered when removed.

File: Corrugated_Cardboard_Cone_HF75Scalar_250211_R3.csv
LABORATORY,FSRI
TEST IDENT,Cardboard_HF75_R3
OPERATOR,Marino
MATERIAL,Cardboard
ORIENTATION,Horizontal
HEAT FLUX,75
SURF AREA,0.01
C FACTOR,0.040382
SPEC HOLDER DIFF,-566
SPECIMEN MASS,5.96
SCAN TIME,0.25
O2 DELAY TIME,11
CO DELAY TIME,11
CO2 DELAY TIME,8
FLOW FACTOR,1
SCAN COUNT,629
TIME TO IGN,4.25
END OF TEST SCAN,149
END OF TEST TIME,37.25
TEST STATUS,1
PRE TEST CMT,Dimensions: 100.97 x 100.30 x 3.74 mm;  with calcium silicate substrate; with tie wires;
POST TEST CMT,Sample charred and became ash. Sample smoldered when removed.