Folder: fsri_materials_database/01_Data/Corrugated_Cardboard/MCC

File: Corrugated_Cardboard_MCC_30K_min_231110_R1.txt
Sample ID:	C:\Users\MCC\Documents\MCC Data\ULINE_CB\ULINE_CB_MCC_N2_30K_231110_R1.txt
Sample Weight (mg):	3.94
Heating Rate (C/s):	0.5
Combustor Temp (C):	900
N2 Flow Rate (cc/min):	80
O2 Flow Rate (cc/min):	20
Calibration File:	C:\Users\MCC\Desktop\UMD MCC\MCC\Calibration Files\Coefficients\Coeff_231026_30K.txt
T Correction Coefficients:	0	1.0291	0
Time Shift (s):	8.5
*
Time (s)	Temperature (C)	N2 Flow (cc/min)	O2 Flow (cc/min)	End Flow (cc/min)	Oxygen (%)	HRR (W/g)
0.000	74.557	80.009	19.989	100.341	20.216	-0.071
7.500	75.071	80.010	19.989	100.341	20.218	-0.259
15.000	75.629	80.012	19.991	100.339	20.218	-0.242
22.500	76.240	80.014	19.993	100.346	20.220	-0.416
30.000	76.911	80.006	19.987	100.351	20.218	-0.296
37.501	77.663	80.008	19.989	100.380	20.214	0.087
45.000	78.635	80.014	19.991	100.434	20.201	1.097
52.500	79.945	80.015	19.992	100.537	20.185	2.406
60.000	81.878	80.001	19.986	100.618	20.165	3.941
67.500	84.435	80.009	19.991	100.603	20.156	4.684
75.000	87.538	80.006	19.989	100.621	20.154	4.807
82.500	91.074	80.005	19.988	100.628	20.153	4.899
90.001	94.906	80.009	19.989	100.650	20.153	4.906
97.500	99.096	80.004	19.988	100.626	20.154	4.867
105.001	103.457	80.006	19.988	100.626	20.158	4.533
112.500	108.014	80.020	19.995	100.597	20.159	4.411
120.001	112.592	80.009	19.989	100.598	20.164	4.050
127.501	117.176	80.006	19.989	100.560	20.167	3.839
135.000	121.717	80.017	19.994	100.536	20.171	3.464
142.500	126.146	80.006	19.988	100.547	20.173	3.302
150.000	130.545	80.011	19.990	100.510	20.177	3.023
157.500	134.738	80.023	19.996	100.490	20.179	2.819
165.000	138.897	80.017	19.991	100.484	20.180	2.751
172.500	142.913	80.005	19.990	100.480	20.180	2.739
180.000	146.825	80.026	19.994	100.470	20.183	2.493
187.500	150.698	80.012	19.991	100.480	20.183	2.524
195.000	154.456	80.005	19.988	100.470	20.184	2.429
202.500	158.206	80.001	19.984	100.466	20.185	2.365
210.000	161.890	80.009	19.986	100.466	20.185	2.355
217.500	165.623	80.010	19.992	100.468	20.186	2.260
225.000	169.295	80.012	19.988	100.466	20.183	2.519
232.500	173.030	80.003	19.991	100.463	20.182	2.584
240.000	176.812	80.011	19.989	100.465	20.184	2.482
247.500	180.570	80.010	19.991	100.470	20.182	2.579
255.000	184.456	80.007	19.989	100.462	20.185	2.401
262.500	188.279	80.008	19.986	100.465	20.183	2.514
270.000	192.183	80.003	19.984	100.461	20.183	2.488
277.500	196.053	80.008	19.986	100.455	20.182	2.589
285.000	199.963	80.013	19.992	100.442	20.181	2.647
292.500	203.891	80.019	19.997	100.417	20.180	2.764
300.000	207.767	80.008	19.991	100.433	20.179	2.872
307.500	211.719	80.015	19.993	100.423	20.181	2.706
315.000	215.557	80.011	19.992	100.425	20.179	2.810
322.500	219.444	80.007	19.989	100.414	20.179	2.810
330.000	223.300	79.995	19.982	100.413	20.177	3.014
337.500	227.164	80.011	19.991	100.416	20.176	3.088
345.000	230.974	80.002	19.988	100.405	20.175	3.180
352.500	234.765	80.006	19.988	100.423	20.174	3.261
360.000	238.567	80.006	19.990	100.420	20.171	3.481
367.500	242.304	80.011	19.992	100.423	20.168	3.722
375.000	246.072	80.010	19.987	100.415	20.164	4.010
382.500	249.801	80.009	19.983	100.416	20.159	4.435
390.000	253.543	80.010	19.989	100.416	20.152	4.989
397.500	257.285	80.008	19.990	100.407	20.144	5.630
405.000	261.014	80.009	19.995	100.425	20.137	6.205
412.500	264.784	80.004	19.988	100.414	20.128	6.920
420.000	268.516	80.013	19.992	100.430	20.116	7.842
427.500	272.269	80.003	19.984	100.415	20.104	8.824
435.000	276.037	79.988	19.978	100.471	20.090	9.894
442.500	279.813	80.016	19.992	100.429	20.073	11.285
450.000	283.625	79.983	19.979	100.456	20.052	12.920
457.500	287.390	80.021	19.997	100.463	20.032	14.554
465.000	291.208	80.008	19.994	100.467	20.006	16.570
472.500	294.956	79.993	19.982	100.466	19.975	19.099
480.000	298.757	80.022	19.993	100.448	19.947	21.262
487.500	302.555	80.002	19.988	100.470	19.916	23.734
495.000	306.364	80.005	19.985	100.508	19.880	26.680
502.500	310.166	80.014	19.989	100.498	19.843	29.606
510.000	313.946	80.013	19.993	100.502	19.802	32.837
517.500	317.789	80.006	19.987	100.542	19.760	36.179
525.000	321.525	80.010	19.992	100.551	19.714	39.896
532.500	325.289	80.015	19.988	100.569	19.663	43.922
540.000	329.021	80.001	19.984	100.598	19.611	48.115
547.500	332.753	79.995	19.986	100.627	19.551	52.886
555.000	336.470	80.012	19.990	100.618	19.485	58.190
562.500	340.166	80.011	19.991	100.651	19.412	63.999
570.000	343.916	80.019	19.995	100.658	19.333	70.326
577.500	347.626	80.005	19.991	100.701	19.254	76.626
585.000	351.342	80.005	19.992	100.715	19.178	82.706
592.500	355.081	80.004	19.988	100.700	19.115	87.662
600.000	358.795	80.001	19.992	100.698	19.082	90.318
607.500	362.543	80.001	19.986	100.660	19.094	89.269
615.000	366.242	80.027	20.000	100.578	19.164	83.689
622.500	370.025	80.007	19.989	100.548	19.291	73.475
630.000	373.783	80.021	19.994	100.470	19.460	60.037
637.500	377.555	79.990	19.982	100.435	19.639	45.820
645.000	381.316	80.003	19.989	100.415	19.793	33.510
652.500	385.064	80.009	19.987	100.377	19.914	23.930
660.000	388.821	80.003	19.986	100.365	19.999	17.143
667.500	392.523	80.008	19.988	100.354	20.052	12.915
675.000	396.264	80.007	19.989	100.341	20.082	10.543
682.500	399.932	80.003	19.988	100.343	20.099	9.222
690.000	403.634	80.003	19.986	100.358	20.106	8.624
697.500	407.309	80.011	19.990	100.342	20.111	8.216
705.000	410.986	80.015	19.991	100.362	20.111	8.280
712.500	414.678	79.996	19.981	100.366	20.113	8.078
720.000	418.359	80.009	19.991	100.323	20.116	7.812
727.500	422.070	80.003	19.985	100.318	20.119	7.596
735.000	425.722	79.994	19.984	100.342	20.123	7.266
742.500	429.451	79.978	19.976	100.330	20.127	6.984
750.000	433.138	80.018	19.993	100.334	20.130	6.712
757.500	436.830	80.013	19.990	100.314	20.134	6.413
765.000	440.555	80.008	19.990	100.331	20.140	5.968
772.500	444.224	80.010	19.991	100.312	20.144	5.657
780.000	447.961	80.004	19.987	100.323	20.148	5.331
787.500	451.625	80.009	19.991	100.334	20.151	5.101
795.000	455.306	80.009	19.988	100.331	20.157	4.611
802.500	458.986	80.008	19.990	100.300	20.160	4.388
810.000	462.661	80.014	19.991	100.309	20.161	4.296
817.500	466.348	80.009	19.990	100.313	20.164	4.036
825.000	470.013	80.008	19.992	100.311	20.167	3.808
832.500	473.704	80.003	19.985	100.302	20.173	3.351
840.000	477.396	80.016	19.992	100.303	20.171	3.468
847.500	481.096	80.007	19.989	100.313	20.176	3.100
855.000	484.772	80.018	19.992	100.305	20.178	2.914
862.500	488.468	80.007	19.989	100.307	20.181	2.681
870.000	492.160	80.008	19.988	100.310	20.184	2.457
877.500	495.853	80.005	19.986	100.298	20.184	2.447
885.000	499.575	80.017	19.992	100.298	20.185	2.376
892.500	503.249	80.014	19.990	100.304	20.185	2.325
900.000	506.981	80.018	19.993	100.307	20.190	1.950
907.500	510.697	80.001	19.985	100.296	20.189	2.022
915.000	514.388	80.012	19.992	100.295	20.190	1.972
922.500	518.096	80.010	19.991	100.284	20.192	1.795
930.000	521.794	80.010	19.991	100.293	20.193	1.694
937.500	525.551	80.010	19.991	100.308	20.195	1.595
945.000	529.245	80.002	19.987	100.308	20.196	1.498
952.500	532.987	80.012	19.992	100.302	20.199	1.227
960.000	536.716	80.010	19.990	100.306	20.202	1.042
967.500	540.421	80.009	19.989	100.302	20.199	1.262
975.000	544.130	80.006	19.989	100.300	20.201	1.129
982.500	547.807	80.015	19.993	100.300	20.201	1.056
990.000	551.531	80.012	19.991	100.308	20.202	1.045
997.500	555.169	80.009	19.989	100.299	20.201	1.123
1005.000	558.884	80.015	19.991	100.303	20.200	1.170
1012.500	562.557	80.010	19.990	100.299	20.202	1.035
1020.000	566.233	80.008	19.989	100.287	20.202	1.029
1027.500	569.935	80.008	19.989	100.305	20.202	0.982
1035.000	573.613	80.012	19.991	100.304	20.204	0.863
1042.500	577.333	80.017	19.994	100.298	20.204	0.857
1050.001	581.052	80.008	19.989	100.295	20.204	0.814
1057.500	584.765	80.006	19.986	100.293	20.205	0.741
1065.001	588.487	80.004	19.987	100.297	20.205	0.794
1072.500	592.199	80.008	19.989	100.304	20.204	0.863
1080.000	595.964	80.009	19.989	100.305	20.205	0.805
1087.500	599.665	80.011	19.992	100.291	20.204	0.820
1095.001	603.422	80.015	19.993	100.300	20.207	0.601
1102.500	607.110	80.007	19.989	100.301	20.209	0.451
1110.000	610.853	80.013	19.993	100.296	20.208	0.507
1117.501	614.537	80.009	19.991	100.291	20.207	0.619
1125.001	618.273	80.007	19.989	100.292	20.206	0.662
1132.500	622.016	80.007	19.989	100.299	20.207	0.582
1140.000	625.689	80.006	19.989	100.300	20.208	0.524
1147.501	629.413	80.011	19.991	100.303	20.209	0.464
1155.000	633.082	80.009	19.990	100.283	20.207	0.577
1162.500	636.778	80.012	19.990	100.260	20.208	0.521
1170.000	640.456	80.012	19.991	100.272	20.207	0.606
1177.500	644.134	80.000	19.985	100.268	20.213	0.153
1185.000	647.848	80.012	19.991	100.288	20.214	0.079
1192.501	651.494	80.014	19.992	100.266	20.213	0.106
1200.000	655.233	80.007	19.988	100.295	20.210	0.354
1207.501	658.957	80.010	19.989	100.292	20.209	0.496
1215.001	662.681	80.009	19.989	100.296	20.209	0.440
1222.500	666.399	80.008	19.988	100.277	20.210	0.410
1230.001	670.053	80.013	19.990	100.287	20.210	0.372
1237.500	673.729	80.013	19.991	100.282	20.211	0.311
1245.000	677.416	80.019	19.994	100.279	20.212	0.206
1252.500	681.132	80.008	19.989	100.275	20.215	-0.051
1260.000	684.923	80.016	19.992	100.283	20.212	0.240
1267.500	688.835	80.005	19.988	100.274	20.210	0.339
1275.000	692.789	80.012	19.991	100.278	20.211	0.258
1282.500	696.760	80.008	19.989	100.273	20.213	0.176
1290.000	700.715	80.007	19.990	100.267	20.214	0.030
1297.500	704.538	80.016	19.993	100.264	20.214	0.086
1305.001	708.367	80.009	19.989	100.274	20.214	0.022
1312.501	712.053	80.004	19.989	100.261	20.219	-0.368
1320.000	715.740	80.011	19.990	100.257	20.221	-0.479
1327.501	719.364	80.013	19.991	100.270	20.219	-0.349
1335.000	722.988	80.006	19.988	100.266	20.218	-0.227
1342.500	726.639	80.008	19.989	100.239	20.217	-0.166
1350.000	730.258	80.006	19.988	100.244	20.217	-0.173
1357.500	733.947	80.014	19.993	100.259	20.220	-0.418
1365.001	737.600	80.006	19.990	100.258	20.221	-0.465
1372.500	741.288	80.013	19.993	100.269	20.221	-0.530
1380.000	744.961	80.008	19.989	100.265	20.223	-0.643
1383.001	746.475	80.011	19.990	100.252	20.223	-0.632

File: Corrugated_Cardboard_MCC_30K_min_231110_R2.txt
Sample ID:	C:\Users\MCC\Documents\MCC Data\ULINE_CB\ULINE_CB_MCC_N2_30K_231110_R2.txt
Sample Weight (mg):	4.01
Heating Rate (C/s):	0.5
Combustor Temp (C):	900
N2 Flow Rate (cc/min):	80
O2 Flow Rate (cc/min):	20
Calibration File:	C:\Users\MCC\Desktop\UMD MCC\MCC\Calibration Files\Coefficients\Coeff_231026_30K.txt
T Correction Coefficients:	0	1.0291	0
Time Shift (s):	8.5
*
Time (s)	Temperature (C)	N2 Flow (cc/min)	O2 Flow (cc/min)	End Flow (cc/min)	Oxygen (%)	HRR (W/g)
0.000	75.189	80.011	19.990	100.340	20.269	-0.269
6.500	75.693	80.008	19.989	100.339	20.268	-0.234
13.000	76.220	80.011	19.992	100.208	20.281	-1.214
19.500	76.680	80.018	19.994	100.306	20.279	-1.071
26.000	77.168	80.015	19.993	100.334	20.271	-0.405
32.501	77.721	79.998	19.984	100.359	20.263	0.181
39.000	78.421	80.015	19.994	100.419	20.255	0.792
45.500	79.346	80.010	19.990	100.499	20.244	1.636
52.000	80.657	79.999	19.985	100.530	20.233	2.526
58.500	82.351	80.009	19.990	100.603	20.220	3.589
65.000	84.486	80.009	19.990	100.606	20.213	4.108
71.500	86.961	80.003	19.987	100.595	20.210	4.334
78.000	89.743	80.005	19.987	100.595	20.210	4.345
84.500	92.781	80.003	19.987	100.606	20.211	4.269
91.000	96.023	80.014	19.991	100.614	20.210	4.309
97.500	99.520	80.008	19.989	100.620	20.208	4.486
104.000	103.163	80.021	19.994	100.608	20.208	4.500
110.500	106.967	80.012	19.990	100.604	20.211	4.242
117.000	110.896	80.002	19.985	100.598	20.215	3.962
123.500	114.814	79.991	19.973	100.573	20.217	3.747
130.000	118.838	80.012	19.987	100.551	20.221	3.455
136.500	122.765	80.002	19.979	100.539	20.223	3.311
143.000	126.681	80.000	19.985	100.538	20.224	3.241
149.500	130.510	80.007	19.990	100.512	20.226	3.094
156.000	134.279	80.015	19.992	100.509	20.227	3.034
162.500	138.019	80.003	19.987	100.490	20.230	2.789
169.000	141.585	80.015	19.992	100.501	20.234	2.462
175.500	145.114	80.022	19.995	100.471	20.237	2.199
182.000	148.553	80.018	19.988	100.468	20.237	2.193
188.500	151.936	80.015	19.990	100.461	20.238	2.172
195.001	155.252	80.014	19.989	100.460	20.238	2.140
201.500	158.528	80.002	19.987	100.465	20.236	2.297
208.000	161.805	80.011	19.990	100.450	20.238	2.165
214.500	165.031	80.011	19.990	100.468	20.236	2.318
221.000	168.291	80.010	19.990	100.457	20.237	2.194
227.500	171.534	80.015	19.989	100.461	20.239	2.092
234.000	174.803	80.009	19.995	100.454	20.240	1.987
240.500	178.100	80.007	19.986	100.447	20.239	2.062
247.000	181.388	80.014	19.991	100.450	20.240	1.946
253.500	184.764	80.008	19.985	100.445	20.241	1.924
260.000	188.072	80.006	19.990	100.432	20.242	1.841
266.500	191.468	80.017	19.990	100.430	20.240	1.954
273.000	194.853	80.007	19.991	100.422	20.238	2.103
279.500	198.219	80.009	19.994	100.424	20.240	1.971
286.000	201.594	79.994	19.985	100.420	20.241	1.924
292.500	204.955	80.005	19.986	100.424	20.242	1.850
299.000	208.345	80.009	19.990	100.413	20.240	1.973
305.500	211.678	80.011	19.991	100.419	20.242	1.802
312.000	215.050	80.019	19.996	100.414	20.241	1.886
318.500	218.351	80.006	19.990	100.414	20.241	1.903
325.000	221.687	80.016	19.991	100.404	20.241	1.931
331.500	224.984	80.008	19.987	100.410	20.238	2.142
338.000	228.271	80.003	19.984	100.401	20.236	2.331
344.500	231.615	80.008	19.988	100.407	20.235	2.360
351.000	234.893	80.005	19.988	100.397	20.235	2.339
357.500	238.202	80.006	19.989	100.405	20.232	2.574
364.000	241.486	80.006	19.990	100.405	20.229	2.808
370.500	244.765	80.004	19.991	100.402	20.227	3.014
377.000	248.058	80.015	19.996	100.399	20.222	3.381
383.500	251.314	80.022	19.996	100.379	20.219	3.604
390.000	254.598	80.010	19.990	100.375	20.212	4.159
396.500	257.806	80.008	19.990	100.417	20.209	4.417
403.000	261.102	80.007	19.989	100.396	20.202	4.947
409.500	264.349	80.012	19.992	100.414	20.192	5.716
416.000	267.614	80.015	19.998	100.399	20.185	6.262
422.500	270.912	80.003	19.988	100.397	20.173	7.234
429.000	274.184	80.013	19.990	100.418	20.161	8.142
435.500	277.468	80.013	19.992	100.416	20.148	9.189
442.000	280.731	80.012	19.990	100.416	20.134	10.299
448.500	284.032	80.006	19.990	100.417	20.116	11.657
455.000	287.294	80.003	19.986	100.434	20.098	13.116
461.500	290.563	80.005	19.988	100.438	20.076	14.807
468.000	293.818	80.014	19.992	100.436	20.055	16.456
474.500	297.055	80.006	19.989	100.447	20.032	18.254
481.000	300.318	80.011	19.991	100.461	20.007	20.217
487.500	303.542	80.005	19.988	100.462	19.979	22.350
494.000	306.820	80.010	19.990	100.469	19.948	24.791
500.500	310.042	80.007	19.987	100.477	19.916	27.354
507.000	313.299	80.007	19.987	100.488	19.880	30.118
513.500	316.556	80.007	19.988	100.499	19.843	33.018
520.000	319.781	80.007	19.989	100.499	19.806	35.932
526.500	323.031	80.010	19.992	100.497	19.767	39.001
533.000	326.252	80.002	19.990	100.548	19.722	42.473
539.500	329.504	80.006	19.989	100.542	19.676	46.098
546.000	332.717	79.996	19.987	100.596	19.625	50.136
552.500	335.952	80.003	19.987	100.585	19.569	54.478
559.000	339.192	80.013	19.992	100.607	19.510	59.119
565.500	342.424	80.009	19.990	100.639	19.446	64.173
572.000	345.696	80.007	19.990	100.649	19.374	69.803
578.500	348.894	80.010	19.991	100.656	19.302	75.480
585.000	352.169	80.008	19.990	100.685	19.234	80.819
591.500	355.385	80.004	19.987	100.698	19.167	86.039
598.000	358.613	80.007	19.989	100.693	19.122	89.582
604.501	361.836	80.016	19.993	100.673	19.106	90.810
611.000	365.081	80.006	19.988	100.621	19.131	88.776
617.500	368.340	80.006	19.990	100.571	19.208	82.712
624.000	371.566	80.009	19.989	100.513	19.333	72.924
630.500	374.867	80.013	19.992	100.462	19.489	60.693
637.001	378.107	80.008	19.989	100.417	19.653	47.832
643.500	381.364	80.010	19.983	100.387	19.796	36.635
650.000	384.644	80.016	19.992	100.372	19.919	27.054
656.500	387.883	80.012	19.992	100.343	20.016	19.440
663.000	391.145	80.013	19.986	100.338	20.086	14.003
669.500	394.344	80.012	19.989	100.324	20.132	10.377
676.000	397.611	80.014	19.992	100.302	20.158	8.374
682.500	400.799	80.014	19.992	100.323	20.170	7.467
689.000	404.008	80.015	19.993	100.321	20.176	6.992
695.500	407.239	80.009	19.991	100.314	20.179	6.756
702.000	410.435	80.007	19.986	100.313	20.183	6.426
708.500	413.661	80.013	19.993	100.320	20.187	6.110
715.000	416.849	80.009	19.992	100.311	20.191	5.783
721.500	420.084	80.006	19.988	100.311	20.194	5.602
728.000	423.290	80.014	19.995	100.301	20.197	5.370
734.500	426.496	80.013	19.992	100.303	20.198	5.276
741.000	429.707	80.009	19.991	100.309	20.203	4.902
747.500	432.894	80.012	19.992	100.308	20.207	4.567
754.000	436.123	80.012	19.991	100.301	20.210	4.346
760.500	439.315	80.009	19.990	100.299	20.214	3.984
767.001	442.533	80.010	19.990	100.304	20.220	3.576
773.500	445.721	80.001	19.987	100.298	20.223	3.297
780.000	448.943	80.013	19.991	100.304	20.229	2.862
786.500	452.126	80.015	19.993	100.294	20.230	2.737
793.000	455.318	80.008	19.990	100.301	20.233	2.523
799.501	458.532	80.010	19.990	100.304	20.235	2.405
806.000	461.705	80.006	19.988	100.295	20.238	2.159
812.500	464.930	80.009	19.990	100.281	20.237	2.227
819.000	468.112	80.009	19.989	100.296	20.242	1.827
825.500	471.302	80.012	19.990	100.280	20.245	1.628
832.000	474.503	80.012	19.990	100.267	20.247	1.397
838.500	477.690	80.011	19.991	100.276	20.247	1.454
845.000	480.918	80.017	19.995	100.273	20.249	1.253
851.500	484.088	80.005	19.989	100.269	20.251	1.093
858.000	487.342	80.009	19.992	100.286	20.254	0.917
864.500	490.523	80.008	19.989	100.277	20.255	0.772
871.000	493.739	80.008	19.989	100.284	20.256	0.699
877.500	496.959	80.010	19.988	100.270	20.258	0.602
884.000	500.162	80.011	19.991	100.277	20.260	0.425
890.500	503.432	80.009	19.990	100.277	20.264	0.134
897.000	506.606	80.013	19.993	100.271	20.263	0.189
903.500	509.846	80.013	19.988	100.264	20.264	0.137
910.000	513.069	80.004	19.990	100.278	20.265	0.047
916.500	516.229	80.015	19.988	100.266	20.266	-0.068
923.000	519.452	80.008	19.988	100.271	20.266	-0.017
929.500	522.687	80.004	19.988	100.270	20.268	-0.237
936.000	525.919	80.013	19.990	100.261	20.269	-0.273
942.500	529.122	80.011	19.990	100.268	20.268	-0.235
949.000	532.359	80.013	19.990	100.265	20.271	-0.442
955.500	535.578	80.018	19.993	100.257	20.273	-0.630
962.000	538.806	80.015	19.990	100.269	20.274	-0.660
968.500	541.998	80.010	19.992	100.244	20.270	-0.397
975.000	545.208	80.012	19.990	100.236	20.268	-0.185
981.501	548.423	80.010	19.992	100.267	20.272	-0.503
988.000	551.608	80.014	19.989	100.253	20.274	-0.697
994.500	554.823	80.013	19.992	100.260	20.274	-0.658
1001.000	558.049	79.997	19.986	100.261	20.276	-0.812
1007.500	561.264	80.013	19.991	100.255	20.276	-0.858
1014.000	564.487	80.005	19.989	100.267	20.279	-1.026
1020.500	567.680	80.010	19.991	100.260	20.279	-1.057
1027.000	570.912	80.007	19.991	100.253	20.281	-1.209
1033.500	574.108	80.011	19.988	100.262	20.281	-1.210
1040.000	577.341	80.011	19.991	100.255	20.281	-1.230
1046.500	580.557	80.009	19.991	100.266	20.277	-0.921
1053.000	583.773	80.013	19.991	100.266	20.273	-0.634
1059.500	586.985	80.008	19.991	100.262	20.276	-0.832
1066.000	590.179	80.017	19.993	100.251	20.278	-0.988
1072.501	593.397	80.016	19.987	100.261	20.277	-0.935
1079.000	596.581	80.006	19.990	100.263	20.281	-1.187
1085.500	599.804	80.015	19.992	100.261	20.283	-1.338
1092.000	603.033	80.011	19.988	100.264	20.278	-1.014
1098.500	606.273	80.015	19.992	100.258	20.279	-1.078
1105.000	609.505	80.015	19.994	100.240	20.278	-0.996
1111.500	612.723	80.010	19.987	100.264	20.280	-1.138
1118.000	615.947	80.007	19.993	100.270	20.281	-1.198
1124.500	619.163	80.010	19.989	100.267	20.284	-1.422
1131.000	622.406	80.008	19.991	100.267	20.281	-1.227
1137.500	625.620	80.009	19.992	100.260	20.282	-1.258
1144.000	628.847	80.013	19.991	100.274	20.281	-1.197
1150.500	632.062	80.008	19.991	100.259	20.282	-1.284
1157.000	635.272	80.011	19.991	100.258	20.282	-1.331
1163.500	638.527	80.011	19.990	100.262	20.285	-1.501
1170.001	641.730	80.006	19.989	100.264	20.283	-1.350
1176.500	644.961	80.001	19.989	100.260	20.283	-1.339
1179.500	646.437	80.002	19.986	100.267	20.283	-1.389