Folder: fsri_materials_database/01_Data/High_Temp_Bourke/STA/N2/10K_min

File: High_Temp_Bourke_STA_N2_10KData_240228_R2.csv
Temp./C,Time/min,DSC/(mW/mg),Mass loss/mg
50.0,0.0,0.756507,0.0247733
52.4,0.275147,0.811169,0.0216866
54.8,0.544923,0.838714,0.0237182
57.2,0.806874,0.855406,0.0251709
59.6,1.06762,0.874211,0.025579
62,1.32296,0.885681,0.0255805
64.4,1.57617,0.893071,0.026946
66.8,1.82772,0.919076,0.0282201
69.2,2.07524,0.929467,0.0295304
71.6,2.32462,0.946307,0.029557
74,2.57001,0.953662,0.0309169
76.4,2.81371,0.968947,0.0308599
78.8,3.05667,0.971974,0.0321491
81.2,3.29793,0.975192,0.0312916
83.6,3.53652,0.983786,0.0319285
86,3.77794,0.979817,0.0341489
88.4,4.01814,0.987698,0.0326093
90.8,4.25588,1.00036,0.0335957
93.2,4.49298,1.00398,0.0335993
95.6,4.7291,1.02804,0.0330406
98,4.96509,1.03164,0.0335321
100.4,5.19948,1.04781,0.0349834
102.8,5.43408,1.05773,0.0335822
105.2,5.66914,1.0686,0.03458
107.6,5.90329,1.07699,0.03722
110,6.13642,1.09095,0.0345795
112.4,6.36992,1.09769,0.0373695
114.8,6.60333,1.11144,0.03854
117.2,6.83563,1.12017,0.0372352
119.6,7.06895,1.12871,0.0385379
122,7.30124,1.13901,0.0385398
124.4,7.53121,1.14736,0.03854
126.8,7.76624,1.16475,0.03853
129.2,7.99755,1.17862,0.03722
131.6,8.22838,1.17878,0.036606
134,8.45936,1.19017,0.0372214
136.4,8.69088,1.19011,0.0377698
138.8,8.922,1.1942,0.036864
141.2,9.15242,1.20616,0.0375505
143.6,9.38178,1.21587,0.0379861
146,9.61291,1.22615,0.0385455
148.4,9.84211,1.23847,0.0388517
150.8,10.0717,1.24788,0.0397398
153.2,10.3018,1.25386,0.0410519
155.6,10.5307,1.25688,0.04118
158,10.7602,1.25786,0.0398582
160.4,10.9894,1.27243,0.0408523
162.8,11.2187,1.28087,0.0398456
165.2,11.4476,1.29074,0.0405184
167.6,11.6775,1.29965,0.0405098
170,11.9057,1.29471,0.0394673
172.4,12.1349,1.30216,0.0392875
174.8,12.3648,1.31184,0.03887
177.2,12.5924,1.31325,0.0382016
179.6,12.8205,1.32274,0.0386557
182,13.0485,1.32567,0.0385296
184.4,13.2771,1.34264,0.0383185
186.8,13.5052,1.34709,0.037236
189.2,13.7335,1.36296,0.03953
191.6,13.9617,1.39006,0.0408887
194,14.1888,1.41926,0.0395238
196.4,14.4186,1.43896,0.0408454
198.8,14.6471,1.4636,0.0408402
201.2,14.8753,1.48555,0.0415802
203.6,15.1032,1.48189,0.0421468
206,15.3316,1.48145,0.04117
208.4,15.5599,1.49228,0.0411677
210.8,15.7878,1.48822,0.042401
213.2,16.0153,1.49291,0.04085
215.6,16.245,1.49929,0.03986
218,16.4733,1.50287,0.0395286
220.4,16.7012,1.50716,0.0408553
222.8,16.9297,1.5149,0.0382096
225.2,17.1579,1.52232,0.0405084
227.6,17.3864,1.52616,0.03985
230,17.6146,1.52748,0.0398586
232.4,17.8431,1.53407,0.0421686
234.8,18.0704,1.54079,0.0408429
237.2,18.2999,1.54361,0.04052
239.6,18.5285,1.5441,0.0428544
242,18.7543,1.54715,0.0428234
244.4,18.9829,1.55852,0.04282
246.8,19.2101,1.55358,0.0401796
249.2,19.4379,1.55953,0.04018
251.6,19.6662,1.56594,0.0414991
254,19.8948,1.56375,0.0428204
256.4,20.1226,1.57108,0.04018
258.8,20.3495,1.56077,0.0389244
261.2,20.5778,1.56386,0.03986
263.6,20.8052,1.55953,0.03986
266,21.0338,1.56556,0.0411833
268.4,21.2616,1.56596,0.0408555
270.8,21.489,1.57616,0.03953
273.2,21.7155,1.57519,0.0403779
275.6,21.946,1.57573,0.0368456
278,22.1737,1.58162,0.0394191
280.4,22.4043,1.57278,0.0421583
282.8,22.6317,1.58195,0.042167
285.2,22.862,1.58448,0.04084
287.6,23.0911,1.58722,0.03821
290,23.32,1.59427,0.0383868
292.4,23.549,1.5932,0.0388602
294.8,23.7782,1.59606,0.0382101
297.2,24.0076,1.5922,0.0388603
299.6,24.237,1.60434,0.0375036
302,24.4664,1.59732,0.0371688
304.4,24.6968,1.59858,0.0382
306.8,24.9262,1.60207,0.0368886
309.2,25.1544,1.60961,0.0385393
311.6,25.3846,1.60732,0.03854
314,25.6134,1.59945,0.0373471
316.4,25.843,1.59192,0.0362311
318.8,26.0727,1.59982,0.03788
321.2,26.3033,1.60225,0.03656
323.6,26.533,1.6012,0.0385381
326,26.7632,1.60304,0.0365594
328.4,26.9932,1.60277,0.0378235
330.8,27.2235,1.61417,0.0361795
333.2,27.4545,1.60533,0.03854
335.6,27.6861,1.61431,0.0354876
338,27.9159,1.61237,0.03458
340.4,28.1459,1.6209,0.0359069
342.8,28.3775,1.63483,0.0362289
345.2,28.6083,1.63834,0.0355717
347.6,28.8396,1.64651,0.0342497
350,29.0711,1.64582,0.0322182
352.4,29.3026,1.66455,0.0339619
354.8,29.5344,1.67744,0.03261
357.2,29.7659,1.68514,0.0326402
359.6,29.9965,1.68129,0.03261
362,30.2295,1.6963,0.0299407
364.4,30.459,1.69656,0.0299799
366.8,30.6926,1.69562,0.0289799
369.2,30.9248,1.69931,0.02898
371.6,31.1566,1.70283,0.02668
374,31.389,1.70533,0.0249959
376.4,31.6222,1.70096,0.0264255
378.8,31.8541,1.70416,0.0250286
381.2,32.086,1.7112,0.0247092
383.6,32.3185,1.70849,0.02065
386,32.5506,1.70797,0.0219603
388.4,32.7837,1.71616,0.02295
390.8,33.0165,1.70993,0.0212894
393.2,33.2495,1.71444,0.0209211
395.6,33.4828,1.71716,0.0186693
398,33.7167,1.71913,0.0180105
400.4,33.9511,1.71067,0.0161404
402.8,34.185,1.71396,0.0147205
405.2,34.4184,1.72179,0.01268
407.6,34.6528,1.72363,0.01329
410,34.8867,1.71672,0.0119743
412.4,35.1207,1.71171,0.01066
414.8,35.3558,1.70567,0.00669976
417.2,35.5889,1.69478,0.00440293
419.6,35.8235,1.696,0.00374289
422,36.0573,1.6769,0.00272625
424.4,36.2922,1.68459,0.00274893
426.8,36.5257,1.68074,-0.00284408
429.2,36.7611,1.66781,-0.00417
431.6,36.9941,1.65428,-0.00418134
434,37.2283,1.64983,-0.00779021
436.4,37.4642,1.63771,-0.0116256
438.8,37.6983,1.62539,-0.01383
441.2,37.9326,1.61966,-0.0154634
443.6,38.1678,1.62195,-0.01943
446,38.4034,1.61877,-0.0233867
448.4,38.6381,1.62508,-0.0291173
450.8,38.8738,1.63436,-0.0340452
453.2,39.1079,1.64598,-0.0440248
455.6,39.343,1.65936,-0.0493369
458,39.5805,1.68355,-0.055689
460.4,39.8162,1.7142,-0.0709504
462.8,40.0514,1.74997,-0.0830325
465.2,40.2898,1.78001,-0.097212
467.6,40.526,1.81794,-0.115418
470,40.7621,1.86854,-0.135662
472.4,40.9997,1.92916,-0.160518
474.8,41.2356,1.9869,-0.186661
477.2,41.4732,2.07222,-0.222701
479.6,41.7095,2.15312,-0.262698
482,41.947,2.27433,-0.308961
484.4,42.1852,2.41066,-0.361472
486.8,42.4242,2.56378,-0.421926
489.2,42.6628,2.71592,-0.498177
491.6,42.9017,2.8665,-0.584746
494,43.1411,3.00637,-0.687587
496.4,43.3792,3.11067,-0.800979
498.8,43.6175,3.17104,-0.930191
501.2,43.8544,3.15155,-1.07143
503.6,44.0884,3.06368,-1.21367
506,44.3246,2.88887,-1.36043
508.4,44.5584,2.62344,-1.5032
510.8,44.7898,2.3194,-1.63193
513.2,45.0227,1.99832,-1.7489
515.6,45.2569,1.71716,-1.85107
518,45.4913,1.48549,-1.93391
520.4,45.725,1.28842,-2.00602
522.8,45.961,1.13565,-2.06993
525.2,46.1965,0.983578,-2.123
527.6,46.4337,0.869766,-2.17212
530,46.6699,0.718143,-2.21247
532.4,46.9076,0.628714,-2.24789
534.8,47.1452,0.55841,-2.27632
537.2,47.3824,0.508786,-2.3049
539.6,47.6201,0.471055,-2.32808
542,47.8576,0.439229,-2.3513
544.4,48.0953,0.418903,-2.37176
546.8,48.3333,0.390614,-2.39002
549.2,48.5718,0.375173,-2.40599
551.6,48.8099,0.34289,-2.42195
554,49.0477,0.308294,-2.43246
556.4,49.2864,0.24461,-2.45257
558.8,49.5231,0.202906,-2.46358
561.2,49.7609,0.181798,-2.4735
563.6,49.9996,0.185251,-2.48481
566,50.2386,0.185407,-2.49863
568.4,50.4771,0.19389,-2.50802
570.8,50.7158,0.186371,-2.51599
573.2,50.9549,0.189955,-2.52322
575.6,51.1931,0.194033,-2.53474
578,51.4312,0.187305,-2.54444
580.4,51.6692,0.201014,-2.5498
582.8,51.9092,0.213047,-2.56032
585.2,52.1475,0.200839,-2.56561
587.6,52.3878,0.219277,-2.57222
590,52.6258,0.229007,-2.58022
592.4,52.8656,0.229033,-2.58548
594.8,53.1038,0.256549,-2.59174
597.2,53.3428,0.28587,-2.5984
599.6,53.5827,0.303156,-2.60467
602,53.8225,0.318581,-2.61261
604.4,54.0617,0.336025,-2.61825
606.8,54.3017,0.359784,-2.62222
609.2,54.5409,0.378996,-2.62613
611.6,54.7821,0.391773,-2.62907
614,55.0215,0.400601,-2.63544
616.4,55.2612,0.419056,-2.63632
618.8,55.5005,0.424182,-2.64192
621.2,55.7401,0.431325,-2.64709
623.6,55.9786,0.44469,-2.6488
626,56.2173,0.447279,-2.65104
628.4,56.4567,0.446385,-2.65367
630.8,56.695,0.43,-2.65629
633.2,56.9334,0.430549,-2.66027
635.6,57.171,0.421665,-2.66288
638,57.4114,0.422631,-2.66652
640.4,57.651,0.409408,-2.66915
642.8,57.8904,0.411424,-2.67031
645.2,58.1293,0.396092,-2.67235
647.6,58.3696,0.38763,-2.67365
650,58.6084,0.380325,-2.67895
652.4,58.8471,0.380189,-2.67816
654.8,59.0858,0.365394,-2.67892
657.2,59.3246,0.353921,-2.683
659.6,59.5632,0.342333,-2.68629
662,59.8034,0.333778,-2.68353
664.4,60.042,0.325246,-2.68536
666.8,60.2808,0.310162,-2.68726
669.2,60.5208,0.285457,-2.68989
671.6,60.7578,0.286167,-2.69122
674,60.9994,0.273163,-2.69523
676.4,61.2387,0.269454,-2.69515
678.8,61.4782,0.254534,-2.69515
681.2,61.7195,0.255092,-2.69781
683.6,61.9582,0.254587,-2.6978
686,62.1993,0.252304,-2.70044
688.4,62.4398,0.275971,-2.70177
690.8,62.6795,0.313015,-2.70174
693.2,62.9202,0.417797,-2.70453
695.6,63.1608,0.434508,-2.70701
698,63.4013,0.423813,-2.7097
700.4,63.6422,0.414236,-2.70966
702.8,63.8818,0.399488,-2.7096
705.2,64.124,0.386117,-2.71097
707.6,64.3643,0.368678,-2.71625
710,64.6058,0.360147,-2.71478
712.4,64.846,0.343975,-2.71885
714.8,65.0888,0.340142,-2.72027
717.2,65.3302,0.327919,-2.72031
719.6,65.5722,0.319841,-2.72063
722,65.8146,0.318163,-2.72261
724.4,66.0567,0.312465,-2.72524
726.8,66.2977,0.289837,-2.72393
729.2,66.5402,0.277095,-2.72403
731.6,66.7818,0.275157,-2.72656
734,67.0219,0.261867,-2.72853
736.4,67.2661,0.242106,-2.72854
738.8,67.508,0.230289,-2.72997
740,67.6298,0.220424,-2.73128