Folder: fsri_materials_database/01_Data/High_Temp_Bourke/STA/N2/30K_min

File: High_Temp_Bourke_STA_N2_30KData_240304_R1.csv
Temp./C,Time/min,DSC/(mW/mg),Mass loss/mg
50.0,0.0,1.4546,-0.00215296
52.5,0.12541,1.66578,-0.00235907
55,0.240244,1.8457,-0.00321398
57.5,0.348232,2.00139,-0.00298385
60,0.450324,2.14582,-0.00380695
62.5,0.551201,2.26767,-0.00347182
65,0.64644,2.3756,-0.00355766
67.5,0.740366,2.47579,-0.00198016
70,0.832165,2.59057,-0.00391118
72.5,0.923227,2.67717,-0.00238538
75,1.01264,2.74259,-0.00420944
77.5,1.10151,2.80664,-0.0040718
80,1.1893,2.85455,-0.00384531
82.5,1.27574,2.9052,-0.00515769
85,1.36251,2.94274,-0.00528784
87.5,1.44814,2.96041,-0.00536447
90,1.53351,2.98667,-0.00462524
92.5,1.6181,3.00687,-0.0052775
95,1.70223,3.06566,-0.00511205
97.5,1.78594,3.09372,-0.00538878
100,1.86936,3.13964,-0.00538148
102.5,1.95266,3.17697,-0.0054036
105,2.03594,3.21948,-0.00680682
107.5,2.11913,3.25651,-0.00670251
110,2.20177,3.29472,-0.00670105
112.5,2.28451,3.33644,-0.00805866
115,2.36684,3.37362,-0.00540802
117.5,2.4492,3.42213,-0.00539029
120,2.53153,3.45191,-0.00538963
122.5,2.61361,3.4825,-0.00638
125,2.69528,3.5365,-0.00637909
127.5,2.77684,3.5681,-0.00671008
130,2.85732,3.59985,-0.00662089
132.5,2.93773,3.63358,-0.00669318
135,3.01871,3.66518,-0.00669996
137.5,3.0991,3.71157,-0.00778344
140,3.17884,3.74203,-0.00768885
142.5,3.25844,3.78705,-0.00637052
145,3.33789,3.82144,-0.00669936
147.5,3.41652,3.86021,-0.0063241
150,3.49612,3.89293,-0.00540636
152.5,3.57487,3.93521,-0.00667938
155,3.65316,3.96991,-0.0073602
157.5,3.73171,4.01038,-0.00737423
160,3.81,4.04447,-0.00604991
162.5,3.88796,4.08229,-0.00702544
165,3.96627,4.11319,-0.00830666
167.5,4.04434,4.14849,-0.0069864
170,4.12261,4.17597,-0.00704
172.5,4.20051,4.20231,-0.00704
175,4.27796,4.24082,-0.00704
177.5,4.35502,4.28328,-0.00704
180,4.43331,4.32253,-0.00704
182.5,4.51032,4.3455,-0.00704077
185,4.58752,4.38562,-0.00834948
187.5,4.66437,4.43447,-0.00834849
190,4.74138,4.49326,-0.00735948
192.5,4.81803,4.54737,-0.00866815
195,4.8946,4.61135,-0.00867006
197.5,4.97109,4.69479,-0.0099954
200,5.04785,4.77228,-0.0100349
202.5,5.12425,4.83326,-0.00867
205,5.20045,4.84698,-0.00764864
207.5,5.27625,4.83192,-0.0084105
210,5.35256,4.85316,-0.00867
212.5,5.42847,4.89847,-0.00867
215,5.50451,4.93835,-0.00864633
217.5,5.58031,4.978,-0.00932651
220,5.65614,5.0132,-0.00998993
222.5,5.73213,5.03699,-0.0100121
225,5.80788,5.06259,-0.00862775
227.5,5.88377,5.08656,-0.011297
230,5.95947,5.10864,-0.0113122
232.5,6.03451,5.13117,-0.00998937
235,6.11033,5.15914,-0.00998997
237.5,6.18617,5.18952,-0.011317
240,6.26164,5.23469,-0.0118407
242.5,6.33657,5.27171,-0.0110196
245,6.41294,5.31109,-0.0107957
247.5,6.48823,5.31853,-0.0105059
250,6.56359,5.34461,-0.01131
252.5,6.63943,5.35996,-0.01131
255,6.71478,5.37686,-0.01131
257.5,6.79021,5.37913,-0.0113099
260,6.86548,5.39476,-0.0116691
262.5,6.94083,5.40425,-0.01165
265,7.0158,5.40266,-0.01165
267.5,7.09141,5.41461,-0.01165
270,7.16651,5.43094,-0.01165
272.5,7.24231,5.44098,-0.01165
275,7.31735,5.45648,-0.0119022
277.5,7.39271,5.46325,-0.01198
280,7.46795,5.47493,-0.01198
282.5,7.54363,5.48341,-0.0119807
285,7.619,5.48418,-0.0132874
287.5,7.69458,5.49626,-0.0136914
290,7.76979,5.49425,-0.0146101
292.5,7.84564,5.50354,-0.0132914
295,7.92096,5.51274,-0.01329
297.5,7.99661,5.51767,-0.01329
300,8.07241,5.52858,-0.0132913
302.5,8.14795,5.54218,-0.0126003
305,8.22368,5.54445,-0.01263
307.5,8.29961,5.5514,-0.0126356
310,8.37506,5.56113,-0.01395
312.5,8.45088,5.56104,-0.01395
315,8.5268,5.56385,-0.01395
317.5,8.60229,5.57347,-0.01395
320,8.67841,5.57705,-0.01395
322.5,8.75422,5.57906,-0.01395
325,8.83031,5.58,-0.01395
327.5,8.90667,5.5825,-0.0139501
330,8.98254,5.58021,-0.0149163
332.5,9.05812,5.5917,-0.0162596
335,9.13467,5.58426,-0.0135717
337.5,9.21108,5.59673,-0.0136189
340,9.28739,5.59592,-0.0145181
342.5,9.36388,5.60171,-0.01593
345,9.44028,5.59689,-0.01593
347.5,9.51657,5.60248,-0.0149469
350,9.59307,5.61032,-0.0162591
352.5,9.66988,5.60446,-0.01626
355,9.74611,5.60293,-0.01626
357.5,9.82316,5.60669,-0.01626
360,9.89975,5.61141,-0.01626
362.5,9.97642,5.60129,-0.0175332
365,10.0535,5.60911,-0.01757
367.5,10.1302,5.60459,-0.0175709
370,10.2072,5.59615,-0.01724
372.5,10.2844,5.59417,-0.0172408
375,10.3614,5.58467,-0.0185626
377.5,10.4386,5.57903,-0.01856
380,10.5158,5.57789,-0.0185749
382.5,10.5933,5.57812,-0.0198687
385,10.6704,5.57777,-0.0185598
387.5,10.7478,5.55922,-0.01856
390,10.8253,5.55403,-0.0208318
392.5,10.9028,5.54231,-0.0208701
395,10.9805,5.53398,-0.0221926
397.5,11.0578,5.52438,-0.02219
400,11.1355,5.51659,-0.02219
402.5,11.2134,5.49992,-0.0221208
405,11.2908,5.49071,-0.0235
407.5,11.3686,5.48434,-0.0234998
410,11.4472,5.46568,-0.0248123
412.5,11.5251,5.44666,-0.02482
415,11.6032,5.43623,-0.0254704
417.5,11.6811,5.42061,-0.0254813
420,11.7592,5.4106,-0.02548
422.5,11.8374,5.39256,-0.0268006
425,11.9158,5.37828,-0.0281102
427.5,11.9943,5.36043,-0.0278048
430,12.0727,5.33845,-0.0283182
432.5,12.1513,5.328,-0.0307399
435,12.2295,5.29914,-0.0316886
437.5,12.308,5.28749,-0.0320572
440,12.3869,5.27469,-0.0344411
442.5,12.4658,5.26051,-0.0366579
445,12.5445,5.24684,-0.0366709
447.5,12.6231,5.22795,-0.0379948
450,12.7019,5.22778,-0.039299
452.5,12.781,5.22695,-0.0406188
455,12.86,5.20804,-0.041939
457.5,12.9392,5.20371,-0.0445809
460,13.0183,5.20674,-0.047244
462.5,13.0977,5.21217,-0.0471732
465,13.1769,5.21736,-0.0517366
467.5,13.2567,5.2349,-0.0576112
470,13.3359,5.24463,-0.0596059
472.5,13.4154,5.25953,-0.0653563
475,13.495,5.28745,-0.0725162
477.5,13.5749,5.31288,-0.0800239
480,13.6547,5.3576,-0.088049
482.5,13.7347,5.41655,-0.0969776
485,13.814,5.4593,-0.106824
487.5,13.8942,5.5297,-0.122185
490,13.9751,5.64789,-0.13847
492.5,14.055,5.79487,-0.161685
495,14.1355,5.94617,-0.187321
497.5,14.2159,6.01825,-0.220306
500,14.2967,6.17917,-0.255879
502.5,14.3779,6.40774,-0.295154
505,14.4586,6.68731,-0.342013
507.5,14.5402,7.02118,-0.394964
510,14.622,7.38411,-0.460864
512.5,14.7039,7.77566,-0.536338
515,14.7861,8.17274,-0.628148
517.5,14.868,8.55524,-0.734848
520,14.9499,8.88857,-0.859833
522.5,15.0317,9.11979,-0.999235
525,15.1127,9.18381,-1.15426
527.5,15.1934,9.02386,-1.31917
530,15.2728,8.60311,-1.48487
532.5,15.3513,7.90355,-1.64739
535,15.4291,6.99961,-1.79729
537.5,15.5062,6.00838,-1.92906
540,15.5834,5.05308,-2.03847
542.5,15.6611,4.22853,-2.13046
545,15.7389,3.52903,-2.20645
547.5,15.8175,2.96887,-2.26851
550,15.896,2.51123,-2.32005
552.5,15.9758,2.27427,-2.3632
555,16.0553,1.9876,-2.39696
557.5,16.135,1.73527,-2.42761
560,16.2152,1.53512,-2.45371
562.5,16.2956,1.35835,-2.47865
565,16.3764,1.25645,-2.49736
567.5,16.4573,1.14797,-2.51601
570,16.5379,1.09193,-2.53299
572.5,16.6193,1.0291,-2.54644
575,16.7004,0.990219,-2.56154
577.5,16.7819,0.963486,-2.5744
580,16.8633,0.929999,-2.58721
582.5,16.9452,0.909867,-2.59879
585,17.0267,0.883731,-2.6079
587.5,17.1085,0.884493,-2.61643
590,17.1904,0.875921,-2.62868
592.5,17.2722,0.866322,-2.63555
595,17.3537,0.860094,-2.64366
597.5,17.4363,0.859169,-2.6552
600,17.5181,0.854019,-2.66286
602.5,17.6005,0.856695,-2.66932
605,17.6827,0.860433,-2.6782
607.5,17.7642,0.903619,-2.68434
610,17.8471,0.93087,-2.69014
612.5,17.9297,0.927437,-2.69703
615,18.0117,0.94626,-2.70338
617.5,18.0944,0.966527,-2.70985
620,18.1765,0.990413,-2.71504
622.5,18.2592,1.00675,-2.72081
625,18.3419,1.01617,-2.72543
627.5,18.4248,1.03081,-2.7312
630,18.5074,1.03345,-2.7356
632.5,18.59,1.03607,-2.74062
635,18.6727,1.04794,-2.74508
637.5,18.7555,1.06286,-2.74956
640,18.8382,1.0817,-2.75226
642.5,18.9209,1.13267,-2.75643
645,19.0037,1.2205,-2.76009
647.5,19.0864,1.25319,-2.76372
650,19.1694,1.2663,-2.76647
652.5,19.2516,1.2775,-2.76893
655,19.3343,1.27168,-2.77109
657.5,19.4167,1.25773,-2.77474
660,19.4993,1.25352,-2.77544
662.5,19.582,1.2468,-2.77821
665,19.6652,1.22891,-2.77993
667.5,19.7474,1.24505,-2.78388
670,19.8304,1.23961,-2.7853
672.5,19.9128,1.2287,-2.78553
675,19.9956,1.2021,-2.78825
677.5,20.0784,1.1895,-2.79061
680,20.161,1.16415,-2.79264
682.5,20.2434,1.15306,-2.79518
685,20.3261,1.12735,-2.79649
687.5,20.4088,1.11219,-2.79782
690,20.4914,1.08125,-2.79912
692.5,20.5741,1.04538,-2.80169
695,20.6566,1.036,-2.80309
697.5,20.7395,1.0034,-2.80331
700,20.8221,0.967677,-2.80507
702.5,20.9048,0.933944,-2.80541
705,20.9873,0.900057,-2.80806
707.5,21.0706,0.868032,-2.80935
710,21.1529,0.827174,-2.81067
712.5,21.236,0.786014,-2.8116
715,21.3187,0.764232,-2.81424
717.5,21.4017,0.724876,-2.81559
720,21.4845,0.687607,-2.81561
722.5,21.5675,0.651228,-2.81693
725,21.6508,0.614773,-2.81865
727.5,21.7337,0.572905,-2.8209
730,21.8167,0.536463,-2.82088
732.5,21.9003,0.497486,-2.8222
735,21.9831,0.458116,-2.82351
737.5,22.0665,0.41455,-2.82486
740,22.1497,0.376152,-2.82615
742.5,22.2332,0.345079,-2.82616
745,22.3168,0.319963,-2.82863
747.5,22.4,0.295013,-2.82905
750,22.484,0.26135,-2.82897
752.5,22.5678,0.227127,-2.83273
755,22.6516,0.187946,-2.8332
757.5,22.7351,0.1625,-2.83396
760,22.8189,0.124771,-2.83625
762.5,22.903,0.105991,-2.83712
765,22.9866,0.0834314,-2.8384
767.5,23.0708,0.0679115,-2.83965
770,23.1544,0.0432609,-2.84089
772.5,23.2385,0.0149083,-2.84225
775,23.3227,0.00320333,-2.84195
777.5,23.4069,-0.00385391,-2.84327
780,23.491,-0.0281499,-2.84466
782.5,23.5755,-0.0402381,-2.84723
785,23.6597,-0.0354737,-2.84657
787.5,23.7443,-0.0419098,-2.84823
790,23.8288,-0.0427293,-2.84978