Folder: fsri_materials_database/01_Data/PEVA/Cone (part 2)

File: PEVA_Cone_HF25Scan_240820_R3.csv
Names,Time,Stack TC,Smoke TC,Exh Press,Smoke Comp,Smoke Meas,CO Meter,CO2 Meter,O2 Meter,Sample Mass,Ext Coeff,Start Test,Flame Verif
Chan Gain,,500,500,1,1,1,1,1,1,1,1,1.0,1.0
Offset,,0,0,0.143687,0,0,0,0,0,0,0,0.0,0.0
Gain,,1,1,25.011,11.7833,14.1275,1,1,1,1.00092,1.04852,1.0,1.0
Units,sec,C,C,Pa,%,%,%,%,%,g,/m,,
Baseline,,44.4398,46.3292,174.878,100.325,100.343,-0.000587522,0.0418559,20.9445,-446.923,-0.0016463,,
7,1.5,43.9562,45.8401,179.12,100.274,100.336,-0.000612716,0.0506214,20.9362,135.745,-0.0056412,0.0,0.0
14,3.25,44.1741,46.0759,171.392,100.328,100.364,-0.000645167,0.0505455,20.9357,135.695,-0.00334307,0.0,0.0
21,5,44.122,46.0511,173.503,100.358,100.329,-0.000691775,0.0501638,20.9355,135.674,0.00270558,0.0,0.0
28,6.75,44.3337,46.3553,175.679,100.367,100.257,-0.000742889,0.0493262,20.9358,135.684,0.010132,0.0,0.0
35,8.5,44.0347,45.8758,178.888,100.368,100.128,-0.000788508,0.048523,20.9368,135.654,0.0219593,0.0,0.0
42,10.25,43.9521,46.0154,180.991,100.401,99.9484,-0.000822181,0.0481908,20.9368,135.674,0.0415527,0.0,0.0
49,12,44.2856,46.4515,175.194,100.433,99.7604,-0.00082254,0.0486507,20.9379,135.674,0.0617982,0.0,0.0
56,13.75,44.2415,46.2145,168.045,100.458,98.4239,-0.000778683,0.049902,20.9384,135.564,0.188159,0.0,1.0
63,15.5,44.7201,46.8549,160.279,100.493,58.5178,-0.000722937,0.0509028,20.9372,135.044,4.97361,0.0,1.0
70,17.25,47.2396,50.1914,148.879,100.505,54.241,-0.000597613,0.0509992,20.9359,134.513,5.67271,0.0,1.0
77,19,49.8945,54.8221,153.923,100.557,54.3518,-0.000444419,0.0501479,20.9355,134.033,5.65871,0.0,1.0
84,20.75,51.6643,57.4484,165.097,100.567,53.3274,-0.000250117,0.0492483,20.9358,133.663,5.83464,0.0,1.0
91,22.5,52.774,59.2415,160.527,100.566,42.4407,0.000133496,0.0624784,20.9368,133.442,7.93477,0.0,0.0
98,24.25,53.535,60.1914,158.807,100.584,49.6222,0.00310119,0.135873,20.9311,133.212,6.49858,0.0,0.0
105,26,54.1841,60.85,166.148,100.612,57.8138,0.0118974,0.27789,20.8428,133.052,5.09586,0.0,0.0
112,27.75,54.3958,61.0633,168.822,100.612,70.109,0.0253118,0.375636,20.6292,132.882,3.32234,0.0,0.0
119,29.5,54.2249,60.8016,167.882,100.637,76.0867,0.0352177,0.40096,20.4727,132.812,2.57201,0.0,0.0
126,31.25,54.3843,60.2943,167.133,100.64,85.0724,0.0394569,0.383266,20.3987,132.742,1.54565,0.0,0.0
133,33,54.0437,60.2785,168.486,100.558,90.8402,0.0382501,0.346942,20.3944,132.662,0.934812,0.0,0.0
140,34.75,53.1824,60.0298,174.694,100.594,92.5053,0.0346276,0.314285,20.4233,132.662,0.771041,0.0,0.0
147,36.5,52.9853,59.1777,171.708,100.642,95.293,0.0295075,0.282901,20.4682,132.682,0.502266,0.0,0.0
154,38.25,52.5259,58.111,174.787,100.698,97.9173,0.0241499,0.25225,20.5157,132.662,0.25752,0.0,0.0
161,40,52.2097,57.3727,173.668,100.78,99.7798,0.0193341,0.220468,20.5735,132.692,0.0917667,0.0,0.0
168,41.75,51.1848,56.7036,176.886,100.841,100.503,0.0150483,0.191766,20.6382,132.732,0.0308335,0.0,0.0
175,43.5,50.3405,55.4135,170.262,100.893,100.742,0.0114573,0.161257,20.6884,132.672,0.0137948,0.0,0.0
182,45.25,49.9211,54.0309,177.224,100.924,100.893,0.00857117,0.134338,20.7408,132.652,0.00284808,0.0,0.0
189,47,49.2916,53.5797,173.838,100.948,100.946,0.00638404,0.111598,20.789,132.712,9.86779e-05,0.0,0.0
196,48.75,49.1834,52.9651,179.073,100.997,101.012,0.0047915,0.0920034,20.8274,132.672,-0.00142218,0.0,0.0
203,50.5,48.1788,52.3401,173.594,101.054,101.027,0.00332526,0.0770269,20.8569,132.652,0.00252034,0.0,0.0
210,52.25,47.6595,51.9738,174.939,101.08,101.11,0.00216171,0.0649176,20.8817,132.662,-0.0028007,0.0,0.0
217,54,47.8363,51.4339,173.088,101.105,101.12,0.00127529,0.0568574,20.9045,132.652,-0.00133993,0.0,0.0
224,55.75,46.896,51.1497,174.026,101.12,101.12,0.000729957,0.0515817,20.9193,132.632,-3.89233e-05,0.0,0.0
231,57.5,47.6787,50.6991,176.003,101.156,101.162,0.000417896,0.0484066,20.928,132.652,-0.000577835,0.0,0.0
238,59.25,47.3572,49.8289,171.561,101.167,101.186,0.000150132,0.0462401,20.9331,132.642,-0.00174568,0.0,0.0
245,61,46.1286,49.7951,172.053,101.2,101.209,-7.71065e-05,0.0448604,20.9364,132.672,-0.000822357,0.0,0.0
252,62.75,46.3824,49.6937,173.4,101.19,101.238,-0.000227355,0.0440957,20.9388,132.682,-0.00436866,0.0,0.0
259,64.5,46.5255,49.5003,173.864,101.228,101.242,-0.00034254,0.0435737,20.9403,132.642,-0.00128291,0.0,0.0
266,66.25,46.7453,49.0231,167.54,101.244,101.303,-0.000396296,0.0432873,20.941,132.612,-0.00544483,0.0,0.0
273,68,46.2398,48.6655,173.717,101.246,101.267,-0.000449013,0.0431133,20.9414,132.582,-0.00185589,0.0,0.0
280,69.75,46.0529,48.3577,174.871,101.267,101.28,-0.000489111,0.0432636,20.9415,132.622,-0.00124014,0.0,0.0
287,71.5,46.2121,48.3743,174.07,101.253,101.278,-0.000505053,0.0432724,20.9416,132.622,-0.00229237,0.0,0.0
294,73.25,46.2143,48.1443,174.004,101.256,101.277,-0.00046587,0.0432319,20.9416,132.612,-0.00184163,0.0,0.0
301,75,45.8896,48.2842,172.89,101.271,101.3,-0.000437481,0.0431632,20.9417,132.612,-0.002617,0.0,0.0
308,76.75,45.8929,48.0163,175.761,101.268,101.282,-0.000484084,0.043114,20.9417,132.542,-0.00127304,0.0,0.0
315,78.5,45.5554,47.9522,171.982,101.242,101.285,-0.000585475,0.042932,20.9417,132.582,-0.0038915,0.0,0.0
322,80.25,45.5852,47.5604,175.51,101.228,101.291,-0.000682701,0.0427184,20.9417,132.602,-0.00570813,0.0,0.0
329,82,45.6734,47.6955,173.527,101.226,101.23,-0.000663085,0.0425861,20.9422,132.612,-0.000388692,0.0,0.0
336,83.75,44.9102,47.6088,172.704,101.219,101.198,-0.000523613,0.0423908,20.9422,132.562,0.00188895,0.0,0.0
343,85.5,45.3043,47.7775,172.709,101.213,101.215,-0.000260077,0.0423004,20.9421,132.582,-0.000226963,0.0,0.0
350,87.25,45.4095,47.2711,179.121,101.19,101.151,-6.42094e-05,0.0422581,20.9421,132.592,0.00351447,0.0,0.0
357,89,45.4549,47.3788,170.075,101.15,101.146,-3.35757e-05,0.0423206,20.9421,132.582,0.000361814,0.0,0.0
364,90.75,44.9072,46.9806,176.509,101.137,101.122,-9.13575e-05,0.0421711,20.9433,132.592,0.00138139,0.0,0.0
371,92.5,44.8116,47.1113,180.23,101.108,101.102,-0.000152798,0.0422407,20.9439,132.642,0.000536137,0.0,0.0
378,94.25,45.3067,47.2322,174.607,101.08,101.03,-0.000248341,0.0422264,20.9449,132.632,0.00460275,0.0,0.0
385,96,45.8057,47.1738,171.705,101.036,101.022,-0.000404203,0.042152,20.9456,132.592,0.00124326,0.0,0.0
392,97.75,45.1417,47.0023,174.352,100.985,100.939,-0.00052122,0.0420036,20.9459,132.592,0.00414027,0.0,0.0
399,99.5,45.4968,46.7438,172.995,100.959,100.937,-0.000580133,0.0420293,20.946,132.582,0.00205009,0.0,0.0
406,101.25,44.9266,46.6888,173.51,100.926,100.886,-0.000530475,0.0421536,20.9461,132.572,0.00363394,0.0,0.0
413,103,44.9039,46.6648,177.135,100.883,100.841,-0.000458445,0.0421712,20.9462,132.592,0.00382902,0.0,0.0
420,104.75,44.6972,47.0595,171.611,100.833,100.83,-0.000378167,0.0421668,20.9456,132.602,0.000286163,0.0,0.0
427,106.5,45.4331,46.7606,172.596,100.818,100.777,-0.000373274,0.0420031,20.9451,132.602,0.00374683,0.0,0.0
434,108.25,45.0398,46.8611,173.803,100.747,100.732,-0.000409906,0.0420352,20.9449,132.592,0.00138139,0.0,0.0
441,110,44.8914,46.857,175.514,100.707,100.71,-0.000435684,0.0418966,20.9448,132.582,-0.000288365,0.0,0.0
448,111.75,44.2606,47.211,173.754,100.671,100.636,-0.000469279,0.041883,20.9447,132.582,0.00319553,0.0,0.0
455,113.5,45.2686,46.7434,173.358,100.622,100.576,-0.000495567,0.0419927,20.9447,132.572,0.00417206,0.0,0.0
462,115.25,44.6517,46.8137,176.301,100.578,100.522,-0.000468166,0.0420504,20.9447,132.582,0.00512327,0.0,0.0
469,117,44.6044,47.0335,173.435,100.533,100.48,-0.000390642,0.0420746,20.9447,132.602,0.00491836,0.0,0.0
476,118.75,44.6999,46.3533,178.918,100.484,100.423,-0.000292905,0.0421695,20.9447,132.612,0.00561419,0.0,0.0
483,120.5,44.8494,46.7104,174.964,100.426,100.407,-0.00020371,0.0421556,20.9447,132.572,0.00174864,0.0,0.0
490,122.25,44.4835,47.2089,169.509,100.382,100.377,-0.000224468,0.0422217,20.9447,132.572,0.000415537,0.0,0.0
497,124,44.7242,47.0287,171.012,100.345,100.355,-0.000311644,0.0423721,20.9447,132.532,-0.000964359,0.0,0.0
504,125.75,44.5948,46.6611,172.754,100.282,100.288,-0.000415444,0.0423247,20.9447,132.552,-0.000534524,0.0,0.0
511,127.5,44.9772,46.366,175.622,100.284,100.278,-0.000475342,0.0423581,20.9447,132.592,0.000611786,0.0,0.0
518,129.25,44.4705,47.0775,177.501,100.293,100.255,-0.000477433,0.0424844,20.9447,132.602,0.00346625,0.0,0.0
525,131,44.6832,46.9058,171.042,100.239,100.214,-0.000444459,0.0426532,20.9447,132.522,0.00223754,0.0,0.0
532,132.75,44.854,47.0929,174.795,100.185,100.189,-0.000471267,0.0426847,20.9447,132.442,-0.000338254,0.0,0.0
539,134.5,44.89,46.6205,175.325,100.15,100.136,-0.000570968,0.0425924,20.9447,132.522,0.00125532,0.0,0.0
546,136.25,44.8083,46.4203,175.971,100.128,100.088,-0.000646323,0.0425426,20.9447,132.542,0.00367668,0.0,0.0
553,138,44.5897,46.36,171.702,100.087,100.075,-0.000658539,0.0426232,20.9447,132.492,0.00105909,0.0,0.0
560,139.75,44.2573,46.5202,175.043,100.069,100.042,-0.00064258,0.0427695,20.9447,132.391,0.00256528,0.0,0.0
567,141.5,43.9221,46.5637,173.69,100.048,100.042,-0.000668473,0.0428441,20.9447,132.432,0.000501054,0.0,0.0
574,143.25,44.8451,45.8269,173.224,100.058,100.044,-0.000721111,0.0429112,20.9447,132.452,0.00134193,0.0,0.0
581,145,44.3604,46.9857,171.582,100.024,100.007,-0.000770298,0.0427818,20.9447,132.472,0.0016434,0.0,0.0
588,146.75,44.4958,46.2996,172.08,100.008,99.9932,-0.000819409,0.042789,20.9442,132.462,0.00131891,0.0,0.0
595,148.5,44.2551,46.7167,173.375,99.9982,100.017,-0.000849257,0.0429126,20.944,132.452,-0.00176213,0.0,0.0
602,150.25,44.0762,46.6477,171.821,99.9662,99.9532,-0.000838999,0.0430125,20.9431,132.482,0.0012027,0.0,0.0
609,152,44.4059,46.6668,177.131,100.028,99.9915,-0.000771064,0.0430812,20.9439,132.542,0.00336213,0.0,0.0
616,153.75,44.2985,46.5991,175.95,100.023,100.037,-0.000694737,0.043249,20.9443,132.472,-0.00133609,0.0,0.0
623,155.5,44.7707,46.7093,171.779,100.03,100.06,-0.000638045,0.0433103,20.9445,132.472,-0.00274312,0.0,0.0
630,157.25,44.1752,46.1921,171.183,100.014,100.052,-0.000638798,0.0434192,20.945,132.482,-0.00355092,0.0,0.0
637,159,44.4371,46.1834,175.535,100.046,100.066,-0.000647106,0.0436189,20.9453,132.462,-0.00181093,0.0,0.0
644,160.75,44.1059,46.5648,176.76,100.071,100.076,-0.000649014,0.0436664,20.9454,132.492,-0.000473121,0.0,0.0
650,162.25,44.3116,46.4696,172.717,100.056,100.077,-0.00061635,0.043765,20.9455,132.432,-0.00190798,0.0,0.0

File: PEVA_Cone_HF50Scalar_240820_R1.csv
LABORATORY,FSRI
TEST IDENT,PEVA_HF50_R1
OPERATOR,Dow
MATERIAL,polyethylene vinyl acetate shower curtain
ORIENTATION,Horizontal
HEAT FLUX,50
SURF AREA,0.01
C FACTOR,0.0397271
SPEC HOLDER DIFF,-566
SPECIMEN MASS,3.34
SCAN TIME,0.25
O2 DELAY TIME,11
CO DELAY TIME,11
CO2 DELAY TIME,8
FLOW FACTOR,1
SCAN COUNT,583
TIME TO IGN,5.75
END OF TEST SCAN,103
END OF TEST TIME,25.75
TEST STATUS,1
PRE TEST CMT,Dimensions: 102.5 x 102 x 0.28 mm; with calcium silicate substrate; secured to substrate by a staple in each corner

File: PEVA_Cone_HF50Scalar_240820_R2.csv
LABORATORY,FSRI
TEST IDENT,PEVA_HF50_R2
OPERATOR,Dow
MATERIAL,polyethylene vinyl acetate shower curtain
ORIENTATION,Horizontal
HEAT FLUX,50
SURF AREA,0.01
C FACTOR,0.0397271
SPEC HOLDER DIFF,-566
SPECIMEN MASS,3.21
SCAN TIME,0.25
O2 DELAY TIME,11
CO DELAY TIME,11
CO2 DELAY TIME,8
FLOW FACTOR,1
SCAN COUNT,592
TIME TO IGN,5.5
END OF TEST SCAN,112
END OF TEST TIME,28
TEST STATUS,1
PRE TEST CMT,Dimensions: 101.5 x 100.5 x 0.28 mm; with calcium silicate substrate; secured to substrate by a staple in each corner

File: PEVA_Cone_HF50Scalar_240820_R3.csv
LABORATORY,FSRI
TEST IDENT,PEVA_HF50_R3
OPERATOR,Dow
MATERIAL,polyethylene vinyl acetate shower curtain
ORIENTATION,Horizontal
HEAT FLUX,50
SURF AREA,0.01
C FACTOR,0.0397271
SPEC HOLDER DIFF,-566
SPECIMEN MASS,3.14
SCAN TIME,0.25
O2 DELAY TIME,11
CO DELAY TIME,11
CO2 DELAY TIME,8
FLOW FACTOR,1
SCAN COUNT,587
TIME TO IGN,6.25
END OF TEST SCAN,107
END OF TEST TIME,26.75
TEST STATUS,1
PRE TEST CMT,Dimensions: 102 x 101 x 0.29 mm; with calcium silicate substrate; secured to substrate by a staple in each corner

File: PEVA_Cone_HF50Scan_240820_R1.csv
Names,Time,Stack TC,Smoke TC,Exh Press,Smoke Comp,Smoke Meas,CO Meter,CO2 Meter,O2 Meter,Sample Mass,Ext Coeff,Start Test,Flame Verif
Chan Gain,,500,500,1,1,1,1,1,1,1,1,1.0,1.0
Offset,,0,0,0.143687,0,0,0,0,0,0,0,0.0,0.0
Gain,,1,1,25.011,11.7833,14.1275,1,1,1,1.00092,1.04852,1.0,1.0
Units,sec,C,C,Pa,%,%,%,%,%,g,/m,,
Baseline,,55.6956,59.0859,168.112,101.091,101.203,-0.000499237,0.042842,20.9337,-448.427,-0.0101949,,
7,1.5,54.7478,58.2816,169.249,100.55,100.746,-0.000682969,0.0510096,20.9291,141.61,-0.0178859,0.0,0.0
14,3.25,54.6444,57.424,167.326,100.475,100.358,-0.000660504,0.0517833,20.9282,141.55,0.0107562,0.0,0.0
21,5,54.4838,57.8632,163.477,100.442,98.3299,-0.000699523,0.0516919,20.9265,141.47,0.195464,0.0,0.0
28,6.75,55.0783,58.7402,122.721,100.356,42.8895,-0.000722959,0.0513034,20.9259,140.739,7.81873,0.0,1.0
35,8.5,59.2102,64.7533,128.293,100.331,31.9412,-0.000708504,0.0506033,20.9266,139.768,10.5272,0.0,1.0
42,10.25,64.5867,73.0453,146.683,100.241,24.6248,-0.000666841,0.0501368,20.927,139.178,12.9116,0.0,1.0
49,12,66.3439,76.247,147.716,100.17,27.6583,-0.00053504,0.0502719,20.9284,138.767,11.8367,0.0,1.0
56,13.75,68.5302,78.8646,159.3,100.083,48.5327,0.00017857,0.0659304,20.9287,138.587,6.65678,0.0,0.0
63,15.5,68.5283,78.8214,158.062,100.105,73.7534,0.00526286,0.187696,20.9183,138.557,2.80977,0.0,0.0
70,17.25,68.3776,78.6335,161.541,100.149,85.5113,0.021825,0.407694,20.8287,138.437,1.45332,0.0,0.0
77,19,68.0389,77.6761,161.911,100.179,89.8413,0.0456012,0.554204,20.4853,138.347,1.00178,0.0,0.0
84,20.75,67.1226,77.0496,166.46,100.207,95.6922,0.06181,0.575152,20.2122,138.387,0.424029,0.0,0.0
91,22.5,66.307,75.7799,166.632,100.234,98.8339,0.0632067,0.514463,20.1019,138.317,0.129356,0.0,0.0
98,24.25,65.6985,74.4867,167.9,100.304,99.4651,0.0530841,0.429582,20.1356,138.337,0.0772372,0.0,0.0
105,26,64.6794,72.9304,169.374,100.332,100.139,0.0413771,0.341525,20.2618,138.367,0.0176728,0.0,0.0
112,27.75,63.0585,71.2506,166.065,100.328,100.365,0.0296486,0.269437,20.4186,138.387,-0.00345494,0.0,0.0
119,29.5,62.156,69.8759,165.276,100.374,100.381,0.0210403,0.207004,20.5452,138.367,-0.000625533,0.0,0.0
126,31.25,62.0345,69.0053,166.822,100.405,100.443,0.0142462,0.161199,20.6457,138.277,-0.00351911,0.0,0.0
133,33,61.3752,68.1906,169.069,100.471,100.524,0.00974818,0.125101,20.7175,138.287,-0.00479977,0.0,0.0
140,34.75,61.0485,67.5544,171.3,100.46,100.551,0.00632035,0.0977954,20.7853,138.337,-0.00834376,0.0,0.0
147,36.5,59.9064,66.7086,163.049,100.447,100.556,0.00414757,0.0791592,20.8362,138.257,-0.00996974,0.0,0.0
154,38.25,59.6151,65.7746,163.044,100.497,100.562,0.00258873,0.0674019,20.8704,138.267,-0.00601258,0.0,0.0
161,40,59.7414,65.0607,163.997,100.514,100.592,0.00155809,0.0597915,20.8933,138.237,-0.00715313,0.0,0.0
168,41.75,59.3668,65.078,166.378,100.511,100.602,0.000978533,0.055198,20.9084,138.267,-0.00836187,0.0,0.0
175,43.5,58.4661,64.2225,164.865,100.53,100.583,0.000651617,0.0525701,20.9173,138.267,-0.00477234,0.0,0.0
182,45.25,59.0364,64.1575,163.821,100.523,100.591,0.000431352,0.050679,20.9229,138.237,-0.00621885,0.0,0.0
189,47,58.8392,63.6621,165.494,100.561,100.622,0.000321023,0.0494705,20.9266,138.197,-0.00556331,0.0,0.0
196,48.75,58.1359,63.0459,168.113,100.574,100.66,0.000272329,0.0487338,20.9286,138.207,-0.00785268,0.0,0.0
203,50.5,58.2206,63.0913,166.948,100.561,100.602,0.000327171,0.0483383,20.9294,138.167,-0.00382239,0.0,0.0
210,52.25,58.0121,61.9492,164.79,100.522,100.648,0.000502669,0.0480816,20.9294,138.157,-0.0115521,0.0,0.0
217,54,58.1469,62.043,169.906,100.551,100.693,0.000637414,0.0479708,20.9294,138.117,-0.0130172,0.0,0.0
224,55.75,57.952,61.6931,167.389,100.579,100.665,0.00067656,0.0478046,20.9295,138.177,-0.00782579,0.0,0.0
231,57.5,57.2805,61.7765,163.531,100.564,100.665,0.000665141,0.0477212,20.9322,138.147,-0.00927277,0.0,0.0
238,59.25,57.4226,61.3934,165.7,100.547,100.596,0.000642553,0.0477399,20.9342,138.167,-0.00451345,0.0,0.0
245,61,56.9936,61.6017,166.904,100.554,100.696,0.000663949,0.0478649,20.9356,138.197,-0.0130359,0.0,0.0
252,62.75,56.8024,60.7831,168.021,100.543,100.592,0.000751782,0.0479815,20.9363,138.207,-0.00448164,0.0,0.0
259,64.5,57.3471,60.8549,165.717,100.531,100.627,0.000857226,0.0479772,20.9367,138.197,-0.00883871,0.0,0.0
266,66.25,57.0247,61.255,164.885,100.526,100.615,0.000971457,0.047913,20.9356,138.197,-0.00815665,0.0,0.0
273,68,57.1928,60.9262,165.005,100.479,100.533,0.00105744,0.04781,20.9351,138.087,-0.00491056,0.0,0.0
280,69.75,57.1741,60.837,170.928,100.472,100.524,0.00108676,0.047871,20.9349,138.097,-0.00474053,0.0,0.0
287,71.5,56.8402,60.7488,167.917,100.475,100.568,0.00110151,0.0478186,20.9348,138.067,-0.00842716,0.0,0.0
294,73.25,56.8171,60.7423,167.2,100.453,100.533,0.00115579,0.0479595,20.9347,138.077,-0.00724092,0.0,0.0
301,75,57.422,60.5276,167.203,100.421,100.497,0.00133999,0.0480793,20.9347,138.087,-0.00693039,0.0,0.0
308,76.75,56.8237,60.7729,167.346,100.414,100.474,0.00150511,0.0481715,20.9347,138.067,-0.0054909,0.0,0.0
315,78.5,56.8693,59.8954,167.3,100.421,100.457,0.00161699,0.048277,20.9347,138.077,-0.00326629,0.0,0.0
322,80.25,56.6776,60.2117,168.658,100.415,100.463,0.00162599,0.0482152,20.9342,137.977,-0.00434014,0.0,0.0
329,82,56.4029,60.0835,169.39,100.366,100.434,0.00150183,0.0483554,20.9337,137.997,-0.00624737,0.0,0.0
336,83.75,56.1795,59.8414,164.311,100.332,100.398,0.00142132,0.0483313,20.9334,137.997,-0.00598954,0.0,0.0
343,85.5,56.5275,60.2122,165.305,100.333,100.389,0.00146914,0.0484523,20.9332,137.977,-0.00512668,0.0,0.0
350,87.25,56.9317,59.8286,170.292,100.326,100.38,0.00158123,0.0484109,20.9324,138.007,-0.00496926,0.0,0.0
357,89,56.5512,59.9627,167.564,100.296,100.368,0.0016192,0.048365,20.9315,138.007,-0.00663304,0.0,0.0
364,90.75,57.0464,59.5872,166.359,100.3,100.349,0.00156644,0.0483422,20.9321,138.037,-0.00441966,0.0,0.0
371,92.5,56.1711,60.0778,166.651,100.3,100.328,0.00153042,0.0483676,20.9325,137.947,-0.00252268,0.0,0.0
378,94.25,56.3624,59.333,162.406,100.263,100.315,0.00168889,0.0483572,20.9314,137.977,-0.00473395,0.0,0.0
385,96,56.1225,59.5894,164.37,100.248,100.333,0.00189021,0.0484317,20.9306,137.967,-0.00774075,0.0,0.0
392,97.75,56.2872,60.2684,161.906,100.252,100.318,0.00194098,0.0486442,20.9303,137.937,-0.00607292,0.0,0.0
399,99.5,56.6261,60.0794,165.524,100.195,100.248,0.0018525,0.0486298,20.9301,137.937,-0.00491386,0.0,0.0
406,101.25,56.5174,60.0416,171.004,100.199,100.258,0.00170458,0.0486176,20.9312,137.927,-0.00541466,0.0,0.0
413,103,55.9562,59.5768,169.585,100.213,100.249,0.00155352,0.0484816,20.9315,137.887,-0.00331016,0.0,0.0
420,104.75,56.4668,59.9101,168.31,100.186,100.248,0.00137257,0.0485039,20.9315,137.917,-0.00569332,0.0,0.0
427,106.5,56.241,59.589,164.755,100.176,100.195,0.00128688,0.0484344,20.9315,137.826,-0.00179777,0.0,0.0
434,108.25,56.5084,59.6724,165.454,100.127,100.216,0.00136319,0.0484267,20.9315,137.897,-0.00818848,0.0,0.0
441,110,55.7737,59.7208,169.029,100.124,100.129,0.00147665,0.0483468,20.9315,137.826,-0.000463252,0.0,0.0
448,111.75,55.7084,59.9426,164.555,100.119,100.151,0.0015795,0.0483694,20.9315,137.856,-0.00297838,0.0,0.0
455,113.5,56.445,59.8479,167.655,100.119,100.168,0.00166325,0.0482095,20.9312,137.806,-0.00452168,0.0,0.0
462,115.25,56.2092,59.8425,173.488,100.09,100.131,0.00175383,0.0482223,20.9309,137.776,-0.00378674,0.0,0.0
469,117,56.1436,59.6781,169.909,100.094,100.155,0.00186337,0.0483501,20.9307,137.726,-0.00557428,0.0,0.0
476,118.75,56.2116,59.6633,166.869,100.074,100.152,0.00195113,0.0484013,20.9306,137.736,-0.00718002,0.0,0.0
483,120.5,56.322,60.048,166.018,100.105,100.131,0.00198368,0.0483579,20.9306,137.746,-0.00237243,0.0,0.0
490,122.25,55.6268,60.0716,169.045,100.092,100.157,0.00196859,0.0482629,20.9306,137.746,-0.00596431,0.0,0.0
497,124,56.2251,59.1256,163.173,100.096,100.154,0.00190694,0.0483481,20.9306,137.726,-0.00529672,0.0,0.0
504,125.75,56.2543,59.5482,165.82,100.149,100.216,0.00189929,0.0483692,20.9315,137.706,-0.00616728,0.0,0.0
511,127.5,56.1752,59.6646,163.498,100.162,100.261,0.00202429,0.0485421,20.9319,137.706,-0.00906589,0.0,0.0
518,129.25,56.1531,59.5689,170.511,100.193,100.251,0.00218207,0.0486085,20.9316,137.666,-0.00524406,0.0,0.0
525,131,56.2183,59.6924,166.535,100.21,100.292,0.00220424,0.0486101,20.9315,137.646,-0.00748232,0.0,0.0
532,132.75,55.9713,58.7912,171.108,100.265,100.324,0.00220311,0.0485701,20.9315,137.596,-0.00535925,0.0,0.0
539,134.5,56.2134,59.533,168.394,100.267,100.311,0.00231501,0.0485286,20.9315,137.626,-0.00404835,0.0,0.0
546,136.25,55.8736,59.5097,165.391,100.313,100.355,0.00244053,0.0488006,20.9315,137.596,-0.00385201,0.0,0.0
553,138,56.1211,59.5086,165.142,100.338,100.381,0.00243185,0.0489595,20.9314,137.606,-0.00396005,0.0,0.0
560,139.75,56.2562,60.3083,170.606,100.35,100.418,0.00241013,0.0488955,20.9314,137.596,-0.00623037,0.0,0.0
567,141.5,56.5819,60.166,164.294,100.371,100.442,0.00243097,0.0487533,20.9314,137.566,-0.00646407,0.0,0.0
574,143.25,56.3652,59.5867,167.894,100.4,100.462,0.00236028,0.0487965,20.9314,137.556,-0.00567686,0.0,0.0
581,145,56.6627,59.8292,166.938,100.42,100.474,0.0021567,0.0488566,20.9325,137.546,-0.00486559,0.0,0.0
583,145.5,56.076,59.7579,163.634,100.42,100.505,0.00211196,0.0488737,20.9328,137.516,-0.00781207,0.0,0.0