Folder: fsri_materials_database/01_Data/PEVA/Cone (part 5)

File: PEVA_Cone_HF75Scan_240820_R3.csv
Names,Time,Stack TC,Smoke TC,Exh Press,Smoke Comp,Smoke Meas,CO Meter,CO2 Meter,O2 Meter,Sample Mass,Ext Coeff,Start Test,Flame Verif
Chan Gain,,500,500,1,1,1,1,1,1,1,1,1.0,1.0
Offset,,0,0,0.143687,0,0,0,0,0,0,0,0.0,0.0
Gain,,1,1,25.011,11.7833,14.1275,1,1,1,1.00092,1.04852,1.0,1.0
Units,sec,C,C,Pa,%,%,%,%,%,g,/m,,
Baseline,,64.7823,69.0523,163.381,100.701,100.721,-0.000687672,0.041609,20.9415,-449.568,-0.00183189,,
7,1.5,63.7222,67.5132,165.154,101.199,101.16,-0.000746324,0.0511728,20.9281,116.887,0.00354078,0.0,0.0
14,3.25,63.9798,67.7966,156.438,101.168,93.1817,-0.000653346,0.0519254,20.9287,116.587,0.756321,0.0,1.0
21,5,65.1803,70.0575,122.798,101.141,23.8337,-0.000468384,0.0527693,20.9286,115.376,13.2942,0.0,1.0
28,6.75,72.3644,81.3648,129.307,101.11,15.7939,-0.000391055,0.0533023,20.9277,114.305,17.076,0.0,1.0
35,8.5,76.4192,87.638,139.582,101.058,14.4013,-0.000422686,0.052929,20.9265,113.844,17.9202,0.0,1.0
42,10.25,78.2352,90.5406,147.445,101.03,49.3807,-0.000460888,0.0526716,20.9255,113.644,6.58412,0.0,0.0
49,12,79.1777,90.8126,150.344,101.021,80.5998,0.000779068,0.113895,20.9251,113.604,2.07705,0.0,0.0
56,13.75,78.1765,90.3307,160.572,100.954,92.6704,0.0124873,0.327441,20.9096,113.564,0.787426,0.0,0.0
63,15.5,77.3104,88.9249,157.627,100.93,96.5804,0.0385075,0.602517,20.6819,113.514,0.405194,0.0,0.0
70,17.25,76.8459,87.7306,163.981,100.854,99.2349,0.0644574,0.706967,20.2096,113.494,0.148896,0.0,0.0
77,19,75.7031,85.7218,159.741,100.818,100.171,0.0758615,0.65576,19.9806,113.474,0.0592374,0.0,0.0
84,20.75,75.0539,84.5183,163.35,100.804,100.246,0.0694832,0.519617,19.9351,113.464,0.0510394,0.0,0.0
91,22.5,74.1568,83.233,167.325,100.762,100.507,0.0550137,0.384894,20.0323,113.424,0.0232598,0.0,0.0
98,24.25,73.5499,82.3774,160.223,100.723,100.492,0.0382461,0.275249,20.2099,113.504,0.0211346,0.0,0.0
105,26,72.4515,80.8451,165.265,100.717,100.58,0.0251761,0.195678,20.4114,113.494,0.0125171,0.0,0.0
112,27.75,71.7332,79.4542,158.713,100.691,100.612,0.0178464,0.148745,20.5698,113.454,0.00724782,0.0,0.0
119,29.5,71.046,78.79,158.888,100.628,100.602,0.0125488,0.114043,20.7039,113.414,0.00235921,0.0,0.0
126,31.25,70.5045,78.3585,162.675,100.579,100.526,0.0095057,0.0945277,20.7854,113.354,0.00483397,0.0,0.0
133,33,70.5137,77.5154,160.514,100.555,100.474,0.00777924,0.0824417,20.8335,113.364,0.00741106,0.0,0.0
140,34.75,70.1014,76.8535,166.71,100.482,100.49,0.00697311,0.0755137,20.8632,113.344,-0.000767531,0.0,0.0
147,36.5,69.477,75.8681,161.571,100.487,100.436,0.00669749,0.071613,20.8818,113.214,0.00473206,0.0,0.0
154,38.25,69.1799,75.5592,167.283,100.436,100.402,0.00660547,0.0692274,20.8929,113.294,0.00314402,0.0,0.0
161,40,68.9622,75.144,165.843,100.375,100.335,0.00651569,0.0675018,20.8999,113.354,0.00370079,0.0,0.0
168,41.75,68.832,75.0338,164.106,100.353,100.31,0.00647718,0.0662506,20.9034,113.254,0.00391122,0.0,0.0
175,43.5,68.4004,74.1873,160.308,100.334,100.329,0.00655449,0.0654453,20.9063,113.194,0.000464874,0.0,0.0
182,45.25,67.8258,73.7922,163.1,100.29,100.262,0.00671416,0.0648844,20.9076,113.224,0.00256309,0.0,0.0
189,47,68.4442,73.8362,163.432,100.237,100.218,0.00689417,0.0644005,20.9078,113.244,0.00172342,0.0,0.0
196,48.75,68.2529,73.6013,157.234,100.183,100.161,0.00702074,0.0637899,20.9089,113.184,0.00202269,0.0,0.0
203,50.5,68.1972,73.4539,160.484,100.161,100.154,0.00706851,0.0633804,20.9094,113.184,0.000609593,0.0,0.0
210,52.25,67.7215,72.8555,162.993,100.129,100.091,0.00713665,0.0631908,20.9097,113.174,0.00349804,0.0,0.0
217,54,67.9158,72.8157,163.241,100.086,100.064,0.00731071,0.0630432,20.9087,113.214,0.00205667,0.0,0.0
224,55.75,67.7876,73.1098,160.639,100.095,100.047,0.00744865,0.0625746,20.9081,113.164,0.00436275,0.0,0.0
231,57.5,67.9188,72.2051,159.201,100.044,100.014,0.00745164,0.0621903,20.9089,113.134,0.00276149,0.0,0.0
238,59.25,67.6245,72.8154,160.572,100.022,100.022,0.00728045,0.0617344,20.9102,113.134,2.41214e-05,0.0,0.0
245,61,67.5562,72.7697,160.529,100.014,100.02,0.00697795,0.061379,20.9113,113.174,-0.000584414,0.0,0.0
252,62.75,67.5388,72.592,157.857,99.9828,99.9437,0.00676814,0.0612518,20.9113,113.084,0.00359777,0.0,0.0
259,64.5,67.3124,72.1199,159.078,99.9925,99.9372,0.00669525,0.0610311,20.9106,113.144,0.00508602,0.0,0.0
266,66.25,67.2263,72.052,162.68,99.96875,99.91,0.00661659,0.0608366,20.9105,113.124,0.0054027,0.0,0.0
273,68,67.2236,71.9257,160.254,99.9403,99.9062,0.00648418,0.0606443,20.9118,113.044,0.00314621,0.0,0.0
280,69.75,67.4661,72.2328,166.143,99.9123,99.898,0.0063155,0.0600044,20.9136,113.024,0.00131891,0.0,0.0
287,71.5,67.28,71.5703,161.168,99.931,99.876,0.00617812,0.0593308,20.9144,113.024,0.0050641,0.0,0.0
294,73.25,66.7886,71.5165,162.606,99.9378,99.8893,0.00597558,0.0585604,20.9149,113.024,0.00446247,0.0,0.0
301,75,67.1389,71.6273,161.654,99.9296,99.9079,0.00575719,0.0579278,20.9159,112.984,0.00199419,0.0,0.0
308,76.75,66.8078,71.4538,161.906,99.9152,99.895,0.00547213,0.0575438,20.9168,112.994,0.00186155,0.0,0.0
315,78.5,67.7877,71.4577,163.794,99.9037,99.9907,0.00518976,0.0574786,20.9172,112.994,-0.00800576,0.0,0.0
322,80.25,66.5578,71.3893,162.478,99.9242,99.9575,0.00488846,0.0571035,20.9185,112.954,-0.00306557,0.0,0.0
329,82,66.5513,71.2996,161.046,99.9367,99.976,0.00472971,0.0568548,20.9193,112.994,-0.00361234,0.0,0.0
336,83.75,66.836,71.2766,160.003,99.9562,99.9368,0.0045971,0.0564781,20.9196,112.974,0.00178371,0.0,0.0
343,85.5,66.8947,71.5732,157.45,99.9331,99.9441,0.00440368,0.0561379,20.9202,112.924,-0.00100822,0.0,0.0
350,87.25,66.6391,71.3424,164.95,100.005,99.9475,0.00417651,0.0558304,20.9205,112.954,0.0053249,0.0,0.0
357,89,67.0809,71.3675,160.08,100.007,99.9333,0.00393267,0.0553925,20.9207,112.934,0.00676685,0.0,0.0
364,90.75,66.8496,71.3973,157.681,100.044,99.9419,0.00373304,0.0548284,20.9207,112.874,0.0094113,0.0,0.0
371,92.5,66.7479,71.0997,163.854,100.021,99.9514,0.0035951,0.0544708,20.9204,112.844,0.00642173,0.0,0.0
378,94.25,66.737,71.0413,162.08,100.05,99.9333,0.0035131,0.0540711,20.9214,112.854,0.0107343,0.0,0.0
385,96,66.7897,71.0238,163.484,100.064,99.9898,0.00336307,0.0535867,20.9214,112.824,0.00685998,0.0,0.0
392,97.75,66.5707,71.472,162.813,100.104,99.9622,0.00318044,0.0531791,20.9214,112.884,0.0129999,0.0,0.0
399,99.5,66.6371,71.272,158.75,100.114,99.9911,0.00296714,0.0528636,20.9214,112.844,0.0112677,0.0,0.0
406,101.25,66.7883,71.2352,163.508,100.144,100.011,0.00266791,0.052549,20.9233,112.793,0.0121448,0.0,0.0
413,103,66.4505,71.1515,162.586,100.158,100.003,0.00239708,0.0521259,20.9247,112.814,0.0142195,0.0,0.0
420,104.75,66.9284,71.4343,166.472,100.188,100.054,0.00219557,0.051799,20.9254,112.753,0.0123484,0.0,0.0
427,106.5,66.4382,71.3341,161.98,100.218,100.124,0.00205778,0.051653,20.9257,112.723,0.00863032,0.0,0.0
434,108.25,66.5583,70.8825,158.882,100.227,100.18,0.00201766,0.0513503,20.9254,112.773,0.00427507,0.0,0.0
441,110,66.575,70.9154,162.295,100.241,100.123,0.00205792,0.0511953,20.9258,112.723,0.0109008,0.0,0.0
448,111.75,66.166,70.7684,157.364,100.239,100.14,0.00210225,0.0509932,20.9267,112.723,0.00911885,0.0,0.0
455,113.5,66.6684,71.1052,160.491,100.264,100.161,0.00209759,0.0507639,20.9272,112.703,0.00949455,0.0,0.0
462,115.25,66.7008,71.2371,163.041,100.279,100.185,0.00199761,0.0503859,20.9278,112.683,0.00859088,0.0,0.0
469,117,66.4978,71.02,164.702,100.292,100.235,0.00186597,0.0501451,20.9283,112.683,0.00525368,0.0,0.0
476,118.75,66.5775,71.2214,164.507,100.323,100.189,0.00180134,0.0500434,20.9284,112.583,0.0122576,0.0,0.0
483,120.5,66.3608,70.6485,159.597,100.318,100.206,0.00166078,0.0499797,20.9284,112.603,0.0102459,0.0,0.0
490,122.25,66.6607,70.8358,163.844,100.355,100.235,0.00137005,0.0500361,20.9285,112.663,0.0110618,0.0,0.0
497,124,66.3115,70.8255,165.422,100.334,100.233,0.00108203,0.0500339,20.9291,112.633,0.00920319,0.0,0.0
504,125.75,66.4293,70.9935,165.75,100.314,100.278,0.000927097,0.0500498,20.9299,112.653,0.00328321,0.0,0.0
511,127.5,66.7245,71.1344,164.018,100.369,100.229,0.0008406,0.0500464,20.9304,112.633,0.012862,0.0,0.0
518,129.25,66.8124,71.0731,163.768,100.35,100.247,0.000817661,0.0497808,20.9306,112.643,0.00949345,0.0,0.0
525,131,66.6538,70.8258,159.961,100.384,100.273,0.000757069,0.049552,20.9296,112.603,0.0101386,0.0,0.0
532,132.75,66.8094,71.1074,159.097,100.398,100.305,0.000613599,0.0495233,20.93,112.603,0.00857664,0.0,0.0
539,134.5,67.0479,70.9136,165.382,100.379,100.339,0.000452612,0.049394,20.9311,112.583,0.00367449,0.0,0.0
546,136.25,66.2804,70.9493,165.188,100.411,100.327,0.000358452,0.049621,20.9322,112.563,0.00774629,0.0,0.0
553,138,67.323,71.0273,163.444,100.416,100.345,0.000354428,0.0496061,20.9328,112.463,0.00650828,0.0,0.0
560,139.75,66.1428,69.7822,162.935,100.407,100.386,0.000382508,0.0494929,20.9333,112.483,0.00200405,0.0,0.0
567,141.5,66.1335,70.1452,164.374,100.392,100.365,0.000408554,0.0494488,20.9325,112.453,0.00248417,0.0,0.0
574,143.25,66.3127,70.5574,160.649,100.407,100.343,0.000465142,0.0493161,20.9321,112.443,0.00587497,0.0,0.0
578,144.25,66.345,70.6551,166.195,100.45,100.413,0.000495595,0.0492788,20.9319,112.443,0.00343447,0.0,0.0

File: PEVA_HRRPUA_25.csv
Time after Ignition,PEVA_R1,PEVA_R2,PEVA_R3,Mean,Std. Dev.
0.0,2.5,7.2,3.3,4.3,2.5
0.25,2.5,7.1,3.4,4.3,2.5
0.5,2.4,6.7,3.4,4.2,2.3
0.75,2.3,6.5,3.4,4.1,2.2
1.0,2.3,6.1,3.4,3.9,2.0
1.25,2.3,6.1,3.6,4.0,1.9
1.5,2.2,5.7,3.7,3.9,1.8
1.75,2.1,5.5,3.8,3.8,1.7
2.0,2.1,5.4,4.0,3.8,1.7
2.25,2.0,5.4,3.9,3.8,1.7
2.5,2.1,5.3,3.9,3.8,1.6
2.75,2.0,5.0,4.1,3.7,1.6
3.0,2.0,5.1,4.2,3.8,1.6
3.25,2.0,4.9,4.3,3.7,1.5
3.5,2.0,4.8,4.4,3.7,1.5
3.75,1.9,4.8,4.4,3.7,1.5
4.0,2.0,4.5,4.5,3.7,1.5
4.25,2.0,4.6,4.6,3.7,1.5
4.5,1.9,4.5,4.5,3.6,1.5
4.75,1.9,4.4,4.5,3.6,1.5
5.0,1.9,4.2,4.5,3.5,1.4
5.25,1.9,4.1,4.5,3.5,1.4
5.5,1.9,3.9,4.5,3.4,1.4
5.75,1.9,3.9,4.5,3.4,1.4
6.0,1.9,3.6,4.5,3.4,1.3
6.25,1.9,3.5,4.5,3.3,1.3
6.5,1.8,3.5,4.5,3.3,1.4
6.75,1.8,3.4,4.5,3.2,1.4
7.0,1.7,3.3,4.4,3.1,1.3
7.25,1.7,3.3,4.2,3.1,1.3
7.5,1.6,3.2,4.2,3.0,1.3
7.75,1.6,3.1,4.1,2.9,1.2
8.0,1.6,3.1,4.1,2.9,1.3
8.25,1.5,3.2,3.9,2.9,1.2
8.5,1.4,3.4,3.9,2.9,1.3
8.75,1.4,3.4,3.8,2.9,1.3
9.0,1.3,3.4,3.8,2.8,1.3
9.25,1.4,3.5,3.8,2.9,1.3
9.5,1.5,3.5,3.7,2.9,1.3
9.75,1.5,3.5,3.7,2.9,1.2
10.0,1.6,3.6,5.4,3.5,1.9
10.25,3.6,4.5,6.7,4.9,1.6
10.5,5.6,5.4,8.2,6.4,1.6
10.75,7.3,6.1,9.4,7.6,1.6
11.0,8.7,16.6,19.7,15.0,5.6
11.25,20.7,25.7,30.1,25.5,4.7
11.5,31.3,33.9,37.4,34.2,3.1
11.75,41.4,41.9,45.3,42.9,2.1
12.0,50.1,47.9,52.4,50.1,2.3
12.25,70.0,55.1,69.2,64.8,8.4
12.5,88.2,72.2,86.8,82.4,8.9
12.75,104.8,89.5,100.2,98.2,7.9
13.0,119.0,103.3,114.2,112.2,8.1
13.25,139.9,118.2,125.7,127.9,11.0
13.5,156.1,129.9,144.1,143.4,13.1
13.75,174.7,148.0,162.9,161.9,13.4
14.0,190.8,166.6,178.3,178.6,12.1
14.25,206.1,177.7,188.5,190.8,14.3
14.5,216.2,193.2,203.9,204.5,11.5
14.75,227.1,209.0,219.6,218.6,9.1
15.0,237.9,217.2,225.1,226.7,10.4
15.25,248.0,229.3,230.3,235.8,10.5
15.5,257.7,241.2,242.4,247.1,9.2
15.75,262.2,246.6,252.6,253.8,7.9
16.0,272.1,252.0,256.2,260.1,10.6
16.25,275.2,258.1,261.8,265.0,9.0
16.5,281.3,269.8,269.2,273.4,6.9
16.75,284.3,271.7,270.8,275.6,7.5
17.0,291.6,277.3,279.1,282.7,7.8
17.25,287.3,279.0,279.3,281.9,4.7
17.5,295.0,284.4,282.2,287.2,6.9
17.75,295.4,283.4,286.9,288.6,6.1
18.0,293.9,289.0,285.6,289.5,4.2
18.25,296.0,290.6,287.8,291.5,4.2
18.5,298.7,287.6,287.4,291.3,6.5
18.75,295.1,289.2,288.0,290.8,3.8
19.0,294.9,290.0,282.8,289.2,6.1
19.25,291.2,287.5,285.5,288.0,2.9
19.5,288.5,283.9,284.4,285.6,2.5
19.75,285.2,281.2,278.7,281.7,3.3
20.0,286.3,278.1,279.3,281.2,4.4
20.25,279.9,284.3,274.6,279.6,4.9
20.5,267.1,275.1,277.3,273.2,5.4
20.75,270.8,273.1,273.3,272.4,1.4
21.0,264.9,271.5,265.4,267.3,3.7
21.25,264.2,267.7,266.0,266.0,1.7
21.5,259.2,268.9,262.1,263.4,5.0
21.75,256.2,260.1,264.3,260.2,4.1
22.0,250.8,258.8,257.8,255.8,4.4
22.25,250.4,257.1,251.8,253.1,3.6
22.5,243.6,251.3,247.9,247.6,3.8
22.75,244.7,255.5,243.9,248.0,6.5
23.0,239.8,245.2,242.8,242.6,2.7
23.25,234.4,243.0,239.3,238.9,4.3
23.5,231.8,239.7,235.6,235.7,3.9
23.75,226.1,237.3,233.7,232.4,5.7
24.0,221.0,232.7,229.6,227.8,6.1
24.25,220.1,229.6,225.6,225.1,4.8
24.5,216.7,225.8,222.3,221.6,4.6
24.75,214.2,222.2,217.6,218.0,4.0
25.0,208.0,220.7,214.1,214.3,6.4
25.25,204.5,213.2,207.9,208.5,4.4
25.5,201.3,209.1,202.5,204.3,4.2
25.75,195.0,204.7,198.1,199.3,5.0
26.0,191.0,199.8,194.9,195.2,4.4
26.25,185.6,194.4,189.6,189.9,4.4
26.5,185.8,187.3,184.5,185.9,1.4
26.75,179.5,186.4,180.6,182.2,3.7
27.0,176.5,177.7,175.1,176.5,1.3
27.25,170.4,176.4,170.2,172.3,3.5
27.5,164.6,174.2,162.3,167.0,6.3
27.75,160.6,166.7,162.8,163.4,3.1
28.0,156.8,160.8,157.5,158.4,2.1
28.25,157.2,156.7,154.7,156.2,1.3
28.5,152.3,,150.8,151.5,1.0
28.75,148.0,,,148.0,
29.0,143.9,,,143.9,
29.25,142.5,,,142.5,
29.5,139.6,,,139.6,
29.75,135.1,,,135.1,
30.0,133.1,,,133.1,
30.25,130.8,,,130.8,
30.5,126.6,,,126.6,
30.75,126.2,,,126.2,
31.0,122.3,,,122.3,
31.25,118.7,,,118.7,
31.5,113.4,,,113.4,
31.75,110.0,,,110.0,
32.0,106.3,,,106.3,
32.25,104.4,,,104.4,
32.5,100.1,,,100.1,
32.75,95.1,,,95.1,
33.0,90.5,,,90.5,

File: PEVA_HRRPUA_50.csv
Time after Ignition,PEVA_R1,PEVA_R2,PEVA_R3,Mean,Std. Dev.
0.0,4.0,0.9,6.4,3.8,2.8
0.25,3.9,0.8,6.6,3.8,2.9
0.5,3.9,0.9,6.8,3.9,3.0
0.75,3.8,0.8,6.9,3.8,3.0
1.0,3.5,0.8,6.5,3.6,2.9
1.25,3.3,0.8,6.6,3.6,2.9
1.5,3.2,0.8,6.5,3.5,2.9
1.75,3.3,0.8,6.8,3.6,3.0
2.0,3.4,0.8,7.3,3.8,3.3
2.25,3.3,0.8,7.3,3.8,3.3
2.5,3.3,0.8,7.2,3.7,3.2
2.75,3.2,0.8,7.1,3.7,3.2
3.0,3.2,0.8,7.2,3.7,3.3
3.25,3.2,0.8,7.3,3.8,3.3
3.5,3.1,0.8,7.2,3.7,3.2
3.75,3.2,0.8,7.3,3.8,3.3
4.0,3.2,0.8,7.1,3.7,3.1
4.25,3.2,0.8,7.1,3.7,3.2
4.5,3.2,0.8,7.1,3.7,3.2
4.75,3.2,0.8,6.8,3.6,3.0
5.0,3.1,0.8,6.8,3.6,3.0
5.25,3.0,0.8,6.6,3.5,2.9
5.5,3.0,0.8,6.4,3.4,2.8
5.75,2.7,0.8,6.4,3.3,2.8
6.0,2.7,0.8,6.1,3.2,2.7
6.25,2.5,0.8,6.0,3.1,2.6
6.5,2.5,0.8,5.9,3.1,2.6
6.75,2.4,0.8,5.9,3.0,2.6
7.0,2.3,0.8,5.7,2.9,2.5
7.25,2.3,0.8,5.7,2.9,2.5
7.5,2.4,0.8,5.6,2.9,2.4
7.75,2.5,1.0,5.7,3.0,2.4
8.0,2.5,1.0,5.6,3.0,2.3
8.25,2.8,1.1,5.5,3.1,2.2
8.5,3.0,1.2,5.4,3.2,2.1
8.75,3.2,1.3,5.4,3.3,2.1
9.0,3.4,1.4,5.4,3.4,2.0
9.25,5.0,1.6,5.3,4.0,2.1
9.5,6.4,1.7,5.4,4.5,2.4
9.75,7.6,1.9,5.3,4.9,2.9
10.0,8.8,2.0,6.9,5.9,3.5
10.25,9.7,3.5,8.4,7.2,3.3
10.5,19.9,4.8,9.9,11.5,7.7
10.75,29.9,5.9,11.0,15.6,12.6
11.0,37.5,7.1,12.1,18.9,16.3
11.25,46.0,8.0,21.8,25.3,19.2
11.5,52.2,9.0,30.6,30.6,21.6
11.75,58.2,9.7,38.5,35.4,24.4
12.0,82.4,23.5,46.1,50.7,29.7
12.25,104.9,36.9,52.8,64.9,35.5
12.5,124.8,48.2,82.9,85.3,38.3
12.75,158.5,59.3,111.5,109.8,49.6
13.0,192.9,90.0,139.2,140.7,51.5
13.25,221.7,117.6,159.9,166.4,52.3
13.5,249.1,143.3,192.0,194.8,53.0
13.75,272.1,167.8,214.5,218.1,52.3
14.0,286.4,188.6,235.2,236.7,48.9
14.25,306.9,206.4,252.6,255.3,50.3
14.5,324.7,225.7,272.5,274.3,49.5
14.75,348.7,243.3,293.6,295.2,52.7
15.0,360.3,259.5,300.6,306.8,50.7
15.25,370.2,268.4,317.1,318.6,50.9
15.5,387.5,282.6,332.0,334.0,52.5
15.75,392.1,286.9,333.3,337.5,52.7
16.0,402.8,297.9,346.7,349.1,52.5
16.25,403.5,312.3,359.5,358.5,45.6
16.5,411.0,320.0,353.8,361.6,46.0
16.75,415.2,324.2,360.6,366.7,45.8
17.0,418.5,328.3,365.4,370.7,45.3
17.25,419.1,335.0,365.2,373.1,42.6
17.5,415.2,339.3,373.8,376.1,38.0
17.75,417.4,340.6,373.7,377.2,38.5
18.0,416.1,337.0,370.7,374.6,39.7
18.25,415.0,342.9,361.9,373.3,37.4
18.5,400.5,344.5,370.2,371.8,28.0
18.75,392.1,337.4,361.9,363.8,27.4
19.0,386.2,329.5,357.4,357.7,28.3
19.25,383.0,329.6,354.8,355.8,26.7
19.5,365.4,325.9,348.8,346.7,19.8
19.75,358.5,319.5,346.8,341.6,20.0
20.0,345.2,311.0,338.2,331.5,18.1

File: PEVA_HRRPUA_75.csv
Time after Ignition,PEVA_R1,PEVA_R2,PEVA_R3,Mean,Std. Dev.
0.0,2.0,7.5,6.3,5.3,2.9
0.25,2.0,7.4,6.4,5.3,2.8
0.5,2.0,7.7,6.2,5.3,3.0
0.75,1.9,7.7,6.0,5.2,3.0
1.0,1.8,7.3,5.0,4.7,2.8
1.25,1.8,8.0,5.2,5.0,3.1
1.5,1.8,8.2,5.5,5.2,3.2
1.75,1.9,8.2,5.6,5.2,3.2
2.0,2.1,8.2,5.5,5.3,3.1
2.25,2.2,8.2,5.6,5.3,3.0
2.5,2.3,8.5,5.9,5.6,3.1
2.75,2.4,8.6,5.8,5.6,3.1
3.0,2.5,9.1,6.0,5.9,3.3
3.25,2.6,9.3,6.3,6.0,3.3
3.5,2.7,9.1,6.1,5.9,3.2
3.75,2.8,9.0,6.3,6.0,3.1
4.0,2.9,9.2,6.3,6.1,3.1
4.25,2.9,9.2,6.4,6.2,3.1
4.5,3.0,9.0,6.5,6.2,3.0
4.75,3.1,9.2,6.6,6.3,3.0
5.0,3.1,9.1,6.8,6.3,3.1
5.25,3.2,9.1,6.8,6.4,3.0
5.5,3.2,9.0,7.0,6.4,3.0
5.75,3.3,8.6,7.1,6.3,2.8
6.0,3.3,8.5,7.1,6.3,2.7
6.25,3.3,8.5,7.3,6.4,2.7
6.5,3.5,8.3,7.4,6.4,2.6
6.75,3.6,8.3,7.4,6.5,2.5
7.0,3.7,8.1,7.5,6.4,2.4
7.25,3.8,7.9,7.7,6.5,2.3
7.5,3.9,8.0,7.7,6.5,2.3
7.75,4.1,7.7,7.7,6.5,2.1
8.0,4.1,7.7,7.8,6.5,2.1
8.25,4.2,7.8,7.8,6.6,2.1
8.5,4.2,7.7,7.8,6.6,2.0
8.75,4.4,7.6,7.8,6.6,1.9
9.0,4.6,7.6,8.0,6.7,1.8
9.25,4.7,7.5,7.9,6.7,1.7
9.5,4.8,7.4,8.0,6.8,1.7
9.75,7.2,7.5,8.0,7.5,0.4
10.0,9.3,7.3,8.1,8.2,1.0
10.25,11.2,15.7,8.1,11.7,3.9
10.5,12.8,23.3,15.6,17.2,5.4
10.75,14.4,29.8,22.3,22.2,7.7
11.0,29.2,36.3,28.1,31.2,4.5
11.25,42.3,40.9,34.1,39.1,4.4
11.5,54.7,46.3,60.1,53.7,6.9
11.75,65.8,72.9,85.4,74.7,9.9
12.0,96.8,96.3,107.5,100.2,6.3
12.25,123.8,118.6,125.4,122.6,3.5
12.5,152.1,137.1,170.3,153.2,16.6
12.75,175.5,176.3,212.2,188.0,21.0
13.0,198.1,215.0,243.7,218.9,23.0
13.25,210.4,248.5,277.7,245.5,33.7
13.5,247.0,275.0,305.3,275.8,29.2
13.75,270.6,297.5,333.8,300.6,31.7
14.0,295.7,320.4,357.7,324.6,31.2
14.25,317.6,350.7,369.9,346.1,26.5
14.5,339.2,372.0,392.8,368.0,27.0
14.75,352.0,383.1,411.7,382.3,29.8
15.0,377.0,403.2,424.0,401.4,23.6
15.25,393.4,410.8,442.0,415.4,24.6
15.5,401.3,424.4,453.0,426.3,25.9
15.75,408.2,435.1,462.2,435.2,27.0
16.0,424.8,450.0,478.7,451.1,26.9
16.25,432.7,449.8,489.1,457.2,28.9
16.5,445.3,454.7,490.4,463.5,23.8