Folder: fsri_materials_database/01_Data/PEVA/Cone (part 3)

File: PEVA_Cone_HF50Scan_240820_R2.csv
Names,Time,Stack TC,Smoke TC,Exh Press,Smoke Comp,Smoke Meas,CO Meter,CO2 Meter,O2 Meter,Sample Mass,Ext Coeff,Start Test,Flame Verif
Chan Gain,,500,500,1,1,1,1,1,1,1,1,1.0,1.0
Offset,,0,0,0.143687,0,0,0,0,0,0,0,0.0,0.0
Gain,,1,1,25.011,11.7833,14.1275,1,1,1,1.00092,1.04852,1.0,1.0
Units,sec,C,C,Pa,%,%,%,%,%,g,/m,,
Baseline,,55.6562,58.5953,168.919,100.706,100.781,-0.000667269,0.0426095,20.9395,-448.537,-0.00688778,,
7,1.5,55.1121,58.9052,170.846,101.351,101.419,-0.000622803,0.0453189,20.9381,126.266,-0.00612833,0.0,0.0
14,3.25,55.1138,58.3066,171.637,101.36,101.277,-0.000693389,0.0452711,20.9379,126.236,0.00752171,0.0,0.0
21,5,54.636,58.4534,158.302,101.328,99.9195,-0.000709688,0.0451247,20.9378,126.146,0.128714,0.0,0.0
28,6.75,55.1756,58.6766,128.703,101.349,39.4741,-0.000733099,0.0449691,20.9378,125.425,8.67255,0.0,1.0
35,8.5,59.0721,64.44,141.104,101.344,32.2517,-0.000814559,0.0448859,20.9378,124.674,10.5307,0.0,1.0
42,10.25,63.5654,70.8664,148.273,101.337,29.4325,-0.000872115,0.0448603,20.9378,124.044,11.3714,0.0,1.0
49,12,65.2197,73.7825,153.813,101.292,34.597,-0.000871832,0.0451754,20.9378,123.744,9.88035,0.0,1.0
56,13.75,66.3212,75.4421,151.485,101.301,43.2858,-0.000516808,0.0624062,20.9371,123.453,7.82035,0.0,0.0
63,15.5,67.4075,76.5267,162.144,101.279,58.6269,0.00434236,0.168083,20.9354,123.383,5.02812,0.0,0.0
70,17.25,67.281,76.4129,161.116,101.255,77.0279,0.018083,0.353277,20.92,123.323,2.51526,0.0,0.0
77,19,67.3972,76.3433,162.944,101.252,91.9952,0.0369701,0.47228,20.6518,123.283,0.881831,0.0,0.0
84,20.75,66.4239,75.2214,163.8,101.191,99.1482,0.051806,0.487609,20.4001,123.263,0.187575,0.0,0.0
91,22.5,65.9413,73.6208,163.473,101.142,99.766,0.0543378,0.44703,20.2781,123.293,0.126027,0.0,0.0
98,24.25,65.1722,72.3324,167.326,101.121,100.743,0.0472874,0.389106,20.2682,123.303,0.0344367,0.0,0.0
105,26,63.9665,71.436,169.455,101.112,101.063,0.0375583,0.323766,20.3351,123.273,0.00445809,0.0,0.0
112,27.75,63.7954,70.2843,170.596,101.073,101.069,0.0282048,0.261767,20.4286,123.293,0.000408958,0.0,0.0
119,29.5,62.1711,69.0451,168.043,101.035,101.045,0.0200225,0.201844,20.5246,123.253,-0.000934752,0.0,0.0
126,31.25,61.726,68.4331,173.253,100.992,100.988,0.0135701,0.151203,20.6301,123.283,0.00039032,0.0,0.0
133,33,61.2363,67.1784,166.332,100.952,100.941,0.00876904,0.11491,20.7345,123.223,0.000962613,0.0,0.0
140,34.75,60.8217,66.4098,161.954,100.921,100.906,0.00571707,0.0900052,20.8004,123.233,0.00133426,0.0,0.0
147,36.5,59.9834,65.9145,166.542,100.857,100.88,0.00366732,0.0738048,20.8444,123.233,-0.00207797,0.0,0.0
154,38.25,59.5565,65.2661,167.731,100.783,100.764,0.00231919,0.0635427,20.8754,123.183,0.00175083,0.0,0.0
161,40,59.3106,64.3083,167.004,100.703,100.784,0.00130474,0.0570806,20.8965,123.183,-0.00745873,0.0,0.0
168,41.75,59.3318,64.328,164.133,100.683,100.707,0.000684988,0.0531783,20.9103,123.203,-0.00221341,0.0,0.0
175,43.5,58.5148,64.2225,162.799,100.594,100.659,0.000236885,0.0505031,20.9203,123.203,-0.00596595,0.0,0.0
182,45.25,58.6481,63.1314,165.008,100.549,100.585,2.35689e-05,0.0490357,20.9271,123.233,-0.003331,0.0,0.0
189,47,58.1956,62.7452,167.688,100.466,100.547,-4.40212e-05,0.0480795,20.9313,123.183,-0.00739728,0.0,0.0
196,48.75,58.0823,62.4975,167.19,100.43,100.433,-4.02903e-05,0.0475282,20.9336,123.153,-0.000304812,0.0,0.0
203,50.5,57.8298,62.4229,170.361,100.389,100.512,-4.15481e-05,0.0469789,20.9347,123.173,-0.0112101,0.0,0.0
210,52.25,58.4708,62.2359,166.44,100.403,100.447,-8.9148e-05,0.0466246,20.9352,123.163,-0.00403793,0.0,0.0
217,54,57.984,61.8811,171.731,100.484,100.524,-0.000133419,0.0464015,20.9355,123.153,-0.00362057,0.0,0.0
224,55.75,57.3707,61.7725,170.957,100.555,100.607,-0.000154594,0.0462909,20.9356,123.123,-0.00474272,0.0,0.0
231,57.5,57.6535,61.6522,169.221,100.623,100.662,-8.46944e-05,0.0461854,20.9357,123.123,-0.00357889,0.0,0.0
238,59.25,57.5203,61.4014,168.097,100.659,100.753,4.66965e-05,0.0461728,20.9357,123.113,-0.00863403,0.0,0.0
245,61,57.679,61.1904,164.253,100.718,100.751,0.000135907,0.0463029,20.9357,123.073,-0.00301677,0.0,0.0
252,62.75,57.426,61.3329,166.147,100.722,100.764,0.000215585,0.0463742,20.9357,123.093,-0.00379662,0.0,0.0
259,64.5,57.0569,60.872,163.852,100.753,100.773,0.000310904,0.0464302,20.9357,123.073,-0.00183944,0.0,0.0
266,66.25,56.8757,61.0005,164.629,100.735,100.774,0.000455114,0.0465079,20.9341,123.083,-0.00352624,0.0,0.0
273,68,57.1583,60.4781,165.508,100.692,100.756,0.000516956,0.046571,20.9334,123.093,-0.00580742,0.0,0.0
280,69.75,57.1312,60.6821,173.529,100.639,100.706,0.00051255,0.0466191,20.933,123.083,-0.00618264,0.0,0.0
287,71.5,56.7791,60.4347,159.938,100.599,100.631,0.000496592,0.0467565,20.9329,123.073,-0.00287254,0.0,0.0
294,73.25,56.6659,60.2574,169.466,100.562,100.604,0.000518558,0.0469321,20.9328,123.073,-0.00380923,0.0,0.0
301,75,56.6056,60.1493,168.173,100.474,100.54,0.000597022,0.0471239,20.9327,123.053,-0.00596321,0.0,0.0
308,76.75,56.6009,60.0695,167.503,100.453,100.501,0.000717298,0.0472577,20.9327,123.053,-0.00435494,0.0,0.0
315,78.5,56.3279,60.6919,167.827,100.377,100.458,0.000855234,0.0473561,20.9327,123.023,-0.00739728,0.0,0.0
322,80.25,56.3444,60.3752,167.079,100.378,100.488,0.00098974,0.0473419,20.9327,123.013,-0.0100213,0.0,0.0
329,82,56.4394,60.1774,169.635,100.335,100.435,0.00110614,0.0473295,20.9327,123.013,-0.00916083,0.0,0.0
336,83.75,56.5583,59.9701,167.399,100.237,100.369,0.0012079,0.0475114,20.9327,123.003,-0.0121219,0.0,0.0
343,85.5,56.5599,59.9118,163.996,100.199,100.279,0.00121507,0.0475523,20.9327,122.953,-0.00739234,0.0,0.0
350,87.25,56.6801,60.2431,169.003,100.152,100.285,0.00116803,0.0476231,20.9318,122.903,-0.0121652,0.0,0.0
357,89,56.0329,59.9526,167.929,100.085,100.217,0.00115333,0.0477856,20.931,122.923,-0.0120604,0.0,0.0
364,90.75,56.5056,59.4191,170.303,100.079,100.223,0.00121686,0.0480268,20.9307,122.973,-0.0132094,0.0,0.0
371,92.5,55.8311,59.8205,163.797,100.071,100.19,0.00128969,0.0480946,20.9305,122.943,-0.010928,0.0,0.0
378,94.25,56.1754,59.7235,165.128,100.1,100.184,0.00137292,0.0481026,20.9304,122.993,-0.00770453,0.0,0.0
385,96,56.1611,59.84,171.036,100.1,100.26,0.00145449,0.048236,20.9304,123.003,-0.0146292,0.0,0.0
392,97.75,56.0664,60.1091,164.05,100.151,100.264,0.00153756,0.0482978,20.9304,122.983,-0.0103731,0.0,0.0
399,99.5,56.1551,59.753,167.33,100.184,100.274,0.00163582,0.0485576,20.9296,122.913,-0.00827737,0.0,0.0
406,101.25,56.4254,59.5194,165.311,100.169,100.324,0.00182572,0.0487657,20.9303,122.843,-0.0142174,0.0,0.0
413,103,56.5417,59.2132,164.988,100.182,100.384,0.00198701,0.0489189,20.9308,122.893,-0.0185143,0.0,0.0
420,104.75,56.6827,59.3885,168.807,100.262,100.4,0.00198746,0.0490379,20.931,122.873,-0.01269,0.0,0.0
427,106.5,56.0487,59.2925,166.106,100.239,100.4,0.00190963,0.0491096,20.9309,122.893,-0.0148011,0.0,0.0
434,108.25,56.1799,59.5614,161.699,100.253,100.403,0.00181512,0.0491066,20.9298,122.883,-0.0137513,0.0,0.0
441,110,56.1959,59.4843,167.326,100.263,100.386,0.00177014,0.0492067,20.9293,122.853,-0.0112941,0.0,0.0
448,111.75,55.8351,59.2659,165.452,100.281,100.398,0.00189843,0.049281,20.93,122.813,-0.0107046,0.0,0.0
455,113.5,55.7332,59.3731,169.346,100.281,100.395,0.00210664,0.0493065,20.9305,122.773,-0.010501,0.0,0.0
462,115.25,55.9956,59.483,167.994,100.283,100.402,0.00224773,0.0493707,20.9308,122.773,-0.0109077,0.0,0.0
469,117,55.903,59.3982,168.213,100.287,100.393,0.00227784,0.0493385,20.9309,122.823,-0.00971564,0.0,0.0
476,118.75,55.8078,59.4114,163.022,100.277,100.364,0.00226536,0.0494354,20.931,122.843,-0.00791303,0.0,0.0
483,120.5,55.9321,59.3852,170.708,100.265,100.407,0.00232552,0.0493272,20.931,122.783,-0.0130178,0.0,0.0
490,122.25,56.2092,59.4436,168.349,100.274,100.397,0.00244983,0.0492769,20.931,122.763,-0.0112195,0.0,0.0
497,124,56.154,59.0911,174.799,100.271,100.367,0.00246702,0.0492109,20.931,122.823,-0.00882335,0.0,0.0
504,125.75,55.8389,59.3387,170.16,100.236,100.339,0.00236636,0.0492739,20.931,122.803,-0.00946155,0.0,0.0
511,127.5,55.9147,59.3167,170.222,100.235,100.359,0.0022671,0.0494398,20.931,122.763,-0.011411,0.0,0.0
518,129.25,56.1541,59.2414,167.611,100.241,100.407,0.00218928,0.0494746,20.931,122.733,-0.0152684,0.0,0.0
525,131,55.8041,59.208,163.75,100.222,100.349,0.00211726,0.0493301,20.9311,122.723,-0.0116114,0.0,0.0
532,132.75,56.0504,59.7179,169.32,100.187,100.284,0.00210405,0.049068,20.9315,122.723,-0.00892322,0.0,0.0
539,134.5,56.2072,58.7789,165.498,100.172,100.302,0.00215832,0.0490617,20.9313,122.693,-0.0119308,0.0,0.0
546,136.25,56.0946,59.4991,164.689,100.185,100.288,0.00231704,0.0489827,20.9308,122.693,-0.00944399,0.0,0.0
553,138,56.0692,59.3476,171.327,100.136,100.233,0.0024644,0.0488692,20.9306,122.723,-0.00897754,0.0,0.0
560,139.75,56.3174,59.6282,170.537,100.134,100.222,0.00249163,0.0487881,20.9305,122.673,-0.00804197,0.0,0.0
567,141.5,56.2452,59.3338,166.219,100.09,100.233,0.00246773,0.0490281,20.9301,122.683,-0.0131402,0.0,0.0
574,143.25,55.6479,59.189,172.234,100.116,100.244,0.00250219,0.0491046,20.9298,122.693,-0.0117448,0.0,0.0
581,145,56.3136,59.8464,167.541,100.092,100.173,0.00259543,0.0490424,20.9297,122.643,-0.00739618,0.0,0.0
588,146.75,56.4279,59.142,165.316,100.09,100.218,0.00264053,0.0489592,20.9296,122.683,-0.0117826,0.0,0.0
592,147.75,55.9093,59.717,166.801,100.088,100.199,0.00258908,0.0489189,20.9296,122.673,-0.0101733,0.0,0.0

File: PEVA_Cone_HF50Scan_240820_R3.csv
Names,Time,Stack TC,Smoke TC,Exh Press,Smoke Comp,Smoke Meas,CO Meter,CO2 Meter,O2 Meter,Sample Mass,Ext Coeff,Start Test,Flame Verif
Chan Gain,,500,500,1,1,1,1,1,1,1,1,1.0,1.0
Offset,,0,0,0.143687,0,0,0,0,0,0,0,0.0,0.0
Gain,,1,1,25.011,11.7833,14.1275,1,1,1,1.00092,1.04852,1.0,1.0
Units,sec,C,C,Pa,%,%,%,%,%,g,/m,,
Baseline,,55.5482,58.6073,168.812,100.625,100.687,-0.000835318,0.0418549,20.9422,-448.615,-0.0056666,,
7,1.5,55.0471,58.1815,164.647,100.959,101.032,-0.000472674,0.0490296,20.9402,118.248,-0.00663468,0.0,0.0
14,3.25,55.1076,58.5187,170.566,100.917,100.809,-0.000467237,0.0530737,20.9369,118.168,0.00989213,0.0,0.0
21,5,55.2886,58.0053,171.834,100.9,100.082,-0.000387708,0.0559216,20.9319,117.968,0.0748003,0.0,0.0
28,6.75,55.2389,58.5217,152.095,100.849,58.7588,-0.000338624,0.0557955,20.9283,117.618,4.96833,0.0,1.0
35,8.5,57.7845,62.9256,138.159,100.834,29.2302,-0.000360564,0.0541975,20.9266,116.617,11.389,0.0,1.0
42,10.25,62.9403,70.2043,142.476,100.794,29.8981,-0.000446303,0.0520618,20.9272,115.986,11.1776,0.0,1.0
49,12,65.253,73.788,156.879,100.746,27.4389,-0.000560338,0.0499838,20.9291,115.626,11.9626,0.0,0.0
56,13.75,66.7267,75.7981,154.677,100.706,44.3869,-0.000451966,0.0602805,20.9306,115.366,7.53515,0.0,0.0
63,15.5,67.4894,76.3626,156.836,100.666,61.7971,0.00137383,0.128419,20.9313,115.246,4.48794,0.0,0.0
70,17.25,67.3724,76.5695,161.844,100.646,81.0586,0.0140671,0.344564,20.9178,115.166,1.99071,0.0,0.0
77,19,66.966,76.1763,159.016,100.578,90.1711,0.0345733,0.501377,20.7159,115.126,1.00455,0.0,0.0
84,20.75,66.3616,74.782,165.708,100.504,95.23,0.0516445,0.534978,20.3977,115.116,0.49578,0.0,0.0
91,22.5,65.3005,74.0711,170.332,100.427,98.264,0.0564275,0.493886,20.2326,115.106,0.200286,0.0,0.0
98,24.25,65.3427,72.5721,169.178,100.39,99.613,0.05139,0.425537,20.2077,115.096,0.07145,0.0,0.0
105,26,64.1769,71.607,170.035,100.394,100.153,0.0414573,0.348171,20.2586,115.076,0.0220676,0.0,0.0
112,27.75,62.6791,69.8528,166.765,100.363,100.22,0.030458,0.275122,20.3732,115.106,0.0130996,0.0,0.0
119,29.5,62.0819,68.9258,167.275,100.313,100.233,0.0216193,0.211678,20.513,115.056,0.00729712,0.0,0.0
126,31.25,61.2026,68.0104,167.271,100.314,100.317,0.0161149,0.16772,20.6138,115.066,-0.00020942,0.0,0.0
133,33,60.5205,66.8327,170.076,100.291,100.305,0.0108189,0.125449,20.7038,115.046,-0.00121328,0.0,0.0
140,34.75,60.4902,66.2327,164.553,100.254,100.272,0.0069683,0.0970341,20.7762,115.066,-0.00164424,0.0,0.0
147,36.5,59.5903,65.5527,168.469,100.192,100.215,0.00423095,0.0773713,20.8332,115.076,-0.00209332,0.0,0.0
154,38.25,59.6064,65.2266,169.916,100.141,100.209,0.00252067,0.0652421,20.8688,115.056,-0.00623366,0.0,0.0
161,40,59.442,64.2214,167.107,100.133,100.181,0.00144735,0.0572692,20.8939,115.056,-0.00445477,0.0,0.0
168,41.75,59.4614,64.3156,167.794,100.105,100.151,0.000774352,0.0523606,20.91,115.066,-0.00429955,0.0,0.0
175,43.5,58.6946,63.9487,167.721,100.061,100.107,0.000377016,0.0493748,20.921,115.066,-0.00421234,0.0,0.0
182,45.25,58.9754,63.2094,169.764,100.01,100.076,8.62441e-05,0.0475657,20.9279,115.046,-0.00613382,0.0,0.0
189,47,58.5295,62.8671,163.847,99.9892,100.035,-0.000125113,0.0463163,20.9319,115.006,-0.00425403,0.0,0.0
196,48.75,58.0635,63.1861,167.729,99.9641,100.025,-0.000131539,0.0454296,20.9355,115.006,-0.00561817,0.0,0.0
203,50.5,58.0332,62.1031,162.679,99.9303,99.9941,-9.75166e-05,0.0448655,20.9373,115.006,-0.00587434,0.0,0.0
210,52.25,58.4262,62.4751,167.552,99.8911,99.9467,-0.000143543,0.044545,20.9381,114.965,-0.005119,0.0,0.0
217,54,57.7325,61.7556,168.019,99.9029,99.9264,-0.000300625,0.0442307,20.9385,114.986,-0.00216186,0.0,0.0
224,55.75,57.4129,61.9169,167.204,99.9371,99.9687,-0.000411713,0.044012,20.9383,114.965,-0.0029049,0.0,0.0
231,57.5,57.8653,61.7739,169.11,99.9346,99.9846,-0.000486952,0.043906,20.9388,114.965,-0.0046045,0.0,0.0
238,59.25,57.9465,61.4756,169.444,99.9464,99.9428,-0.000517807,0.0438031,20.9385,114.945,0.000334404,0.0,0.0
245,61,57.3448,61.3078,167.252,99.9482,99.9937,-0.000414983,0.0437891,20.9383,114.935,-0.00417998,0.0,0.0
252,62.75,57.435,61.3587,170.378,99.9393,100.022,-0.000308264,0.043875,20.9383,114.986,-0.00762443,0.0,0.0
259,64.5,57.2223,61.2308,167.252,99.9231,99.9812,-0.00022172,0.0438744,20.9385,114.986,-0.00534609,0.0,0.0
266,66.25,57.4039,61.0579,166.413,99.8745,99.948,-0.000180087,0.0438133,20.939,114.975,-0.00676141,0.0,0.0
273,68,57.2952,61.2044,167.82,99.8594,99.9773,-0.000136975,0.0439139,20.9393,114.986,-0.0108495,0.0,0.0
280,69.75,56.9517,60.9403,168.455,99.8702,99.9532,-0.000121144,0.043971,20.9394,114.935,-0.00763485,0.0,0.0
287,71.5,57.3946,60.777,167.279,99.8591,99.8954,-9.92854e-05,0.0439758,20.9395,114.945,-0.00334416,0.0,0.0
294,73.25,57.2235,60.9365,164.046,99.8548,99.9501,-2.89678e-07,0.0439173,20.9393,114.925,-0.00878164,0.0,0.0
301,75,56.654,60.8822,166.697,99.8238,99.8967,0.000140453,0.0439938,20.9382,114.905,-0.00670929,0.0,0.0
308,76.75,56.9261,60.7826,165.626,99.8023,99.8251,0.000217376,0.0440884,20.9373,114.875,-0.00210538,0.0,0.0
315,78.5,57.2167,60.6567,173.337,99.8278,99.9018,0.000312997,0.0442525,20.9368,114.885,-0.00682121,0.0,0.0
322,80.25,56.7451,60.8214,168.652,99.831,99.8165,0.000477779,0.0444709,20.9365,114.875,0.00133974,0.0,0.0
329,82,57.024,60.6882,168.182,99.7954,99.8402,0.000642762,0.0447204,20.9364,114.845,-0.00412569,0.0,0.0
336,83.75,56.7066,60.3869,165.471,99.8005,99.81,0.000752486,0.0450311,20.9364,114.855,-0.00088157,0.0,0.0
343,85.5,56.9481,60.407,165.911,99.7663,99.8238,0.000811146,0.0452841,20.9363,114.855,-0.00530111,0.0,0.0
350,87.25,56.6757,60.2705,170.281,99.7854,99.882,0.000846965,0.0454636,20.9366,114.845,-0.00890566,0.0,0.0
357,89,56.7564,60.8072,164.073,99.8109,99.8066,0.000839247,0.0455367,20.9368,114.825,0.000396898,0.0,0.0
364,90.75,57.7516,60.4263,164.052,99.7738,99.7954,0.000823259,0.0454883,20.9359,114.825,-0.0019831,0.0,0.0
371,92.5,56.8638,60.578,161.324,99.7922,99.7889,0.000862547,0.0456943,20.9361,114.795,0.000302609,0.0,0.0
378,94.25,57.0514,60.2653,173.662,99.7778,99.9156,0.000926574,0.0459422,20.9365,114.815,-0.0126983,0.0,0.0
385,96,57.1547,60.4149,173.204,99.7961,99.8755,0.00102221,0.0463034,20.9368,114.785,-0.00731553,0.0,0.0
392,97.75,56.8869,60.0322,168.826,99.7562,99.8648,0.00117231,0.0465465,20.9373,114.785,-0.0100021,0.0,0.0
399,99.5,56.9391,60.6891,168.681,99.7598,99.8247,0.00134242,0.0468333,20.9366,114.735,-0.00597747,0.0,0.0
406,101.25,56.7615,60.5031,173.017,99.7483,99.8497,0.00150509,0.0471095,20.936,114.745,-0.00934247,0.0,0.0
413,103,57.0823,60.113,164.074,99.7836,99.8316,0.00163011,0.0473249,20.9358,114.765,-0.00442515,0.0,0.0
420,104.75,56.6572,60.5445,165.643,99.7562,99.8307,0.00169953,0.0475472,20.935,114.755,-0.0068651,0.0,0.0
427,106.5,56.8179,59.9199,170.921,99.748,99.8566,0.00170626,0.0477946,20.934,114.725,-0.0100109,0.0,0.0
434,108.25,56.6444,60.2933,161.897,99.7526,99.8432,0.0016802,0.0477764,20.9336,114.755,-0.00834815,0.0,0.0
441,110,56.976,60.1076,167.758,99.7595,99.8497,0.00166472,0.0479246,20.9334,114.715,-0.00831468,0.0,0.0
448,111.75,56.8472,60.2283,161.758,99.7562,99.8906,0.00167609,0.0480206,20.9334,114.715,-0.0123848,0.0,0.0
455,113.5,56.494,60.4646,169.258,99.7195,99.8057,0.00167553,0.0479506,20.9333,114.685,-0.00794321,0.0,0.0
462,115.25,56.9014,60.476,167.528,99.7354,99.9325,0.00164229,0.0480261,20.9333,114.655,-0.0181578,0.0,0.0
469,117,56.3127,60.2301,169.744,99.7515,99.848,0.001629,0.0479667,20.9333,114.655,-0.0088848,0.0,0.0
476,118.75,56.931,60.0567,175.267,99.7469,99.8385,0.00169861,0.0480822,20.933,114.595,-0.00844253,0.0,0.0
483,120.5,56.1453,59.9822,168.288,99.7613,99.8359,0.00180104,0.0481752,20.9327,114.635,-0.00687717,0.0,0.0
490,122.25,57.0514,60.5115,167.034,99.7404,99.8199,0.0018782,0.0483393,20.9326,114.625,-0.00733089,0.0,0.0
497,124,56.5735,60.1237,166.01,99.7415,99.7846,0.00194771,0.0485049,20.9325,114.625,-0.00397431,0.0,0.0
504,125.75,56.8712,60.0917,171.099,99.7505,99.7992,0.00204006,0.0485554,20.9325,114.595,-0.00449535,0.0,0.0
511,127.5,56.2954,59.8991,168.139,99.7555,99.7984,0.00207851,0.0486318,20.9325,114.585,-0.00395183,0.0,0.0
518,129.25,56.2217,60.3331,167.423,99.7418,99.8411,0.00207632,0.0484463,20.9325,114.595,-0.00914436,0.0,0.0
525,131,56.7023,60.3136,169.653,99.7397,99.8462,0.00207905,0.0484556,20.9325,114.565,-0.00981991,0.0,0.0
532,132.75,56.7179,60.2631,167.189,99.749,99.832,0.00212708,0.0483911,20.9325,114.615,-0.00764802,0.0,0.0
539,134.5,56.8592,59.841,169.098,99.7706,99.8687,0.00222761,0.0485395,20.9326,114.575,-0.00903406,0.0,0.0
546,136.25,56.3998,60.1578,168.075,99.7742,99.8234,0.00234251,0.0486396,20.9326,114.545,-0.00453155,0.0,0.0
553,138,56.694,60.2949,168.194,99.7346,99.8165,0.00242712,0.0487706,20.9326,114.565,-0.00754377,0.0,0.0
560,139.75,56.8165,60.0567,163.485,99.7379,99.8372,0.00236735,0.0488058,20.9326,114.515,-0.00915205,0.0,0.0
567,141.5,56.7324,60.4486,167.96,99.7559,99.8195,0.00224009,0.0487909,20.9326,114.535,-0.00586556,0.0,0.0
574,143.25,56.8753,59.9816,169.128,99.7602,99.8346,0.00216665,0.048731,20.9326,114.485,-0.00685852,0.0,0.0
581,145,56.6356,60.2546,159.091,99.7573,99.8527,0.00216219,0.0486291,20.9326,114.525,-0.00879152,0.0,0.0
587,146.5,56.7494,59.8877,164.717,99.7764,99.7992,0.00214557,0.0485681,20.9326,114.505,-0.00210867,0.0,0.0

File: PEVA_Cone_HF75Scalar_240820_R1.csv
LABORATORY,FSRI
TEST IDENT,PEVA_HF75_R1
OPERATOR,Dow
MATERIAL,polyethylene vinyl acetate shower curtain
ORIENTATION,Horizontal
HEAT FLUX,75
SURF AREA,0.01
C FACTOR,0.0397271
SPEC HOLDER DIFF,-566
SPECIMEN MASS,3.18
SCAN TIME,0.25
O2 DELAY TIME,11
CO DELAY TIME,11
CO2 DELAY TIME,8
FLOW FACTOR,1
SCAN COUNT,559
TIME TO IGN,3.25
END OF TEST SCAN,79
END OF TEST TIME,19.75
TEST STATUS,1
PRE TEST CMT,Dimensions: 102 x 103 x 0.29 mm; with calcium silicate substrate; secured to substrate by a staple in each corner

File: PEVA_Cone_HF75Scalar_240820_R2.csv
LABORATORY,FSRI
TEST IDENT,PEVA_HF75_R2
OPERATOR,Dow
MATERIAL,polyethylene vinyl acetate shower curtain
ORIENTATION,Horizontal
HEAT FLUX,75
SURF AREA,0.01
C FACTOR,0.0397271
SPEC HOLDER DIFF,-566
SPECIMEN MASS,3.21
SCAN TIME,0.25
O2 DELAY TIME,11
CO DELAY TIME,11
CO2 DELAY TIME,8
FLOW FACTOR,1
SCAN COUNT,562
TIME TO IGN,4
END OF TEST SCAN,82
END OF TEST TIME,20.5
TEST STATUS,1
PRE TEST CMT,Dimensions: 103 x 103 x 0.28 mm; with calcium silicate substrate; secured to substrate by a staple in each corner

File: PEVA_Cone_HF75Scalar_240820_R3.csv
LABORATORY,FSRI
TEST IDENT,PEVA_HF75_R3
OPERATOR,Dow
MATERIAL,polyethylene vinyl acetate shower curtain
ORIENTATION,Horizontal
HEAT FLUX,75
SURF AREA,0.01
C FACTOR,0.0397271
SPEC HOLDER DIFF,-566
SPECIMEN MASS,3.37
SCAN TIME,0.25
O2 DELAY TIME,11
CO DELAY TIME,11
CO2 DELAY TIME,8
FLOW FACTOR,1
SCAN COUNT,578
TIME TO IGN,3.25
END OF TEST SCAN,98
END OF TEST TIME,24.5
TEST STATUS,1
PRE TEST CMT,Dimensions: 103 x 105 x 0.28 mm; with calcium silicate substrate; secured to substrate by a staple in each corner