Folder: fsri_materials_database/01_Data/PEVA/Cone

File: PEVA_Cone_HF25Scalar_240820_R1.csv
LABORATORY,FSRI
TEST IDENT,PEVA_HF25_R1
OPERATOR,Dow
MATERIAL,polyethylene vinyl acetate shower curtain
ORIENTATION,Horizontal
HEAT FLUX,25
SURF AREA,0.01
C FACTOR,0.0397271
SPEC HOLDER DIFF,-566
SPECIMEN MASS,3.37
SCAN TIME,0.25
O2 DELAY TIME,11
CO DELAY TIME,11
CO2 DELAY TIME,8
FLOW FACTOR,1
SCAN COUNT,666
TIME TO IGN,13.5
END OF TEST SCAN,186
END OF TEST TIME,46.5
TEST STATUS,1
PRE TEST CMT,Dimensions: 102 x 105 x 0.28 mm; with calcium silicate substrate; secured to substrate by a staple in each corner

File: PEVA_Cone_HF25Scalar_240820_R2.csv
LABORATORY,FSRI
TEST IDENT,PEVA_HF25_R2
OPERATOR,Dow
MATERIAL,polyethylene vinyl acetate shower curtain
ORIENTATION,Horizontal
HEAT FLUX,25
SURF AREA,0.01
C FACTOR,0.0397271
SPEC HOLDER DIFF,-566
SPECIMEN MASS,3.26
SCAN TIME,0.25
O2 DELAY TIME,11
CO DELAY TIME,11
CO2 DELAY TIME,8
FLOW FACTOR,1
SCAN COUNT,644
TIME TO IGN,12.75
END OF TEST SCAN,164
END OF TEST TIME,41
TEST STATUS,1
PRE TEST CMT,Dimensions: 101.5 x 102 x 0.26 mm; with calcium silicate substrate; secured to substrate by a staple in each corner

File: PEVA_Cone_HF25Scalar_240820_R3.csv
LABORATORY,FSRI
TEST IDENT,PEVA_HF25_R3
OPERATOR,Dow
MATERIAL,polyethylene vinyl acetate shower curtain
ORIENTATION,Horizontal
HEAT FLUX,25
SURF AREA,0.01
C FACTOR,0.0397271
SPEC HOLDER DIFF,-566
SPECIMEN MASS,3.25
SCAN TIME,0.25
O2 DELAY TIME,11
CO DELAY TIME,11
CO2 DELAY TIME,8
FLOW FACTOR,1
SCAN COUNT,650
TIME TO IGN,14
END OF TEST SCAN,170
END OF TEST TIME,42.5
TEST STATUS,1
PRE TEST CMT,Dimensions: 102 x 101.5 x 0.29 mm; with calcium silicate substrate; secured to substrate by a staple in each corner (see pre-test pictures)

File: PEVA_Cone_HF25Scan_240820_R1.csv
Names,Time,Stack TC,Smoke TC,Exh Press,Smoke Comp,Smoke Meas,CO Meter,CO2 Meter,O2 Meter,Sample Mass,Ext Coeff,Start Test,Flame Verif
Chan Gain,,500,500,1,1,1,1,1,1,1,1,1.0,1.0
Offset,,0,0,0.143687,0,0,0,0,0,0,0,0.0,0.0
Gain,,1,1,25.011,11.7176,14.1531,1,1,1,1.00092,1.04852,1.0,1.0
Units,sec,C,C,Pa,%,%,%,%,%,g,/m,,
Baseline,,44.0085,46.1634,174.982,99.1987,99.9398,-0.000345495,0.0430369,20.9379,-446.898,-0.0684583,,
8,1.75,43.3137,46.278,176.049,99.1403,99.8179,-0.000756763,0.0515626,20.9296,130.36,-0.0626473,0.0,0.0
16,3.75,44.0251,45.521,173.282,99.175,99.8127,-0.00066137,0.0518484,20.9301,130.25,-0.0589521,0.0,0.0
24,5.75,43.6314,45.996,174.903,99.1521,99.7932,-0.000638919,0.0520188,20.9303,130.24,-0.0592837,0.0,0.0
32,7.75,43.7065,45.7198,175.226,99.1721,99.6766,-0.000676879,0.0511323,20.9304,130.24,-0.0466714,0.0,0.0
40,9.75,43.8596,45.6491,177.139,99.1571,99.5134,-0.000748267,0.0495349,20.9308,130.25,-0.0329881,0.0,0.0
48,11.75,43.761,45.8138,179.36,99.1746,99.0365,-0.000722847,0.0478178,20.9318,130.219,0.012816,0.0,0.0
56,13.75,43.9741,46.2652,168.599,99.1886,89.9364,-0.000631268,0.0476316,20.9332,130.089,0.900617,0.0,1.0
64,15.75,44.1891,46.7896,150.63,99.2168,42.3925,-0.000517229,0.0482269,20.9338,129.339,7.82098,0.0,1.0
72,17.75,47.5291,51.4199,165.296,99.2243,54.8248,-0.000488974,0.0478687,20.934,128.738,5.45633,0.0,1.0
80,19.75,50.2337,55.8712,157.441,99.235,55.1626,-0.000470495,0.0476922,20.9342,128.298,5.40083,0.0,1.0
88,21.75,52.5836,58.138,160.949,99.2497,44.8013,-0.000271701,0.0553405,20.935,128.007,7.31572,0.0,1.0
96,23.75,53.3208,59.5831,161.057,99.2594,44.6453,0.00311649,0.134298,20.9308,127.727,7.34868,0.0,0.0
104,25.75,53.8522,60.8237,165.937,99.2797,54.9514,0.0143172,0.290919,20.8017,127.557,5.44026,0.0,0.0
112,27.75,54.0589,61.0125,169.967,99.259,66.6141,0.0282369,0.388018,20.5398,127.397,3.66812,0.0,0.0
120,29.75,54.5648,61.7399,169.061,99.2926,78.5553,0.0390423,0.395655,20.4031,127.287,2.15468,0.0,0.0
128,31.75,53.8899,61.2135,167.349,99.269,85.2518,0.0408899,0.365864,20.3598,127.217,1.40008,0.0,0.0
136,33.75,53.9192,60.5215,174.499,99.2358,91.3285,0.0370893,0.325499,20.4032,127.207,0.76372,0.0,0.0
144,35.75,53.1831,59.7881,174.993,99.1592,94.2902,0.031872,0.290992,20.4612,127.147,0.463096,0.0,0.0
152,37.75,52.7546,58.8115,171.758,99.2189,95.0331,0.0256314,0.254719,20.5157,127.137,0.396451,0.0,0.0
160,39.75,52.1547,57.9911,171.895,99.3184,97.3792,0.019581,0.218878,20.5828,127.157,0.181351,0.0,0.0
168,41.75,51.2443,57.0917,179.007,99.3741,98.4975,0.0146846,0.18435,20.6439,127.107,0.0814993,0.0,0.0
176,43.75,50.7284,55.937,175.021,99.377,99.3384,0.0107304,0.154675,20.6909,127.157,0.00357147,0.0,0.0
184,45.75,49.7576,55.1878,175.933,99.4117,99.8986,0.00749765,0.126202,20.7417,127.127,-0.0449414,0.0,0.0
192,47.75,49.5457,54.0465,173.674,99.4281,100.036,0.00532341,0.104806,20.7988,127.137,-0.0560565,0.0,0.0
200,49.75,48.3376,52.5314,169.57,99.4718,100.125,0.00387193,0.0881289,20.838,127.127,-0.0601588,0.0,0.0
208,51.75,48.3218,52.1017,174.747,99.4861,100.143,0.00269361,0.0755081,20.8665,127.107,-0.0605429,0.0,0.0
216,53.75,47.4796,51.4619,174.081,99.4961,100.18,0.00176122,0.0660171,20.8883,127.107,-0.0629879,0.0,0.0
224,55.75,47.591,51.2585,174.584,99.5193,100.209,0.0010406,0.0588566,20.905,127.117,-0.0635354,0.0,0.0
232,57.75,46.986,50.5452,182.406,99.5386,100.23,0.000517383,0.0541762,20.9176,127.127,-0.0636541,0.0,0.0
240,59.75,46.4887,50.0101,169.123,99.5808,100.244,0.000248185,0.0510821,20.9251,127.097,-0.0610236,0.0,0.0
248,61.75,46.2321,49.7512,173.106,99.5955,100.263,0.000106019,0.0490286,20.9302,127.067,-0.0614529,0.0,0.0
256,63.75,46.1236,49.319,174.544,99.6012,100.269,3.36476e-05,0.0469106,20.9325,127.067,-0.0614789,0.0,0.0
264,65.75,45.5961,48.9459,170.489,99.6127,100.296,-3.75122e-05,0.0455892,20.936,127.057,-0.0629183,0.0,0.0
272,67.75,45.972,48.9376,169.141,99.6445,100.32,-0.000152421,0.044485,20.9379,127.087,-0.0621583,0.0,0.0
280,69.75,45.8204,48.4924,176.934,99.647,100.298,-0.000242523,0.0438002,20.9388,127.057,-0.059868,0.0,0.0
288,71.75,45.3649,48.567,173.798,99.6699,100.344,-0.000326571,0.0431979,20.9404,127.077,-0.0619921,0.0,0.0
296,73.75,45.3952,48.4213,174.07,99.6763,100.385,-0.000331079,0.0429034,20.9412,127.067,-0.0651596,0.0,0.0
304,75.75,45.3615,48.0285,172.522,99.6684,100.38,-0.000261435,0.0427024,20.9415,127.057,-0.06545,0.0,0.0
312,77.75,45.203,47.5777,173.527,99.6674,100.386,-0.000212426,0.0424902,20.9417,127.057,-0.0660629,0.0,0.0
320,79.75,44.9617,47.5097,171.789,99.7418,100.432,-0.000258607,0.0421739,20.9417,127.017,-0.0633958,0.0,0.0
328,81.75,44.9355,47.6702,171.966,99.731,100.448,-0.000331234,0.0420664,20.9417,127.027,-0.0659276,0.0,0.0
336,83.75,44.8514,47.3694,175.225,99.7557,100.458,-0.000368053,0.0420029,20.9418,127.007,-0.0644827,0.0,0.0
344,85.75,45.1979,47.0884,175.067,99.77,100.474,-0.000319229,0.0418099,20.9418,127.057,-0.0646274,0.0,0.0
352,87.75,44.228,46.5666,176.238,99.7968,100.502,-0.000319581,0.0418646,20.9418,127.047,-0.0647245,0.0,0.0
360,89.75,44.9336,47.547,174.07,99.8068,100.525,-0.00027789,0.0418642,20.942,127.027,-0.0659365,0.0,0.0
368,91.75,44.4982,46.645,173.855,99.8283,100.538,-0.000132554,0.0420566,20.943,127.027,-0.0651447,0.0,0.0
376,93.75,45.1154,46.9744,175.398,99.8419,100.554,-0.000144693,0.0420234,20.9434,126.977,-0.0653948,0.0,0.0
384,95.75,44.4645,47.2595,174.016,99.8905,100.564,-0.000162529,0.0418029,20.9436,126.977,-0.0618238,0.0,0.0
392,97.75,44.6376,46.8009,171.262,99.8716,100.604,-0.000156068,0.0417238,20.9437,127.027,-0.0671634,0.0,0.0
400,99.75,45.0296,46.6975,171.658,99.908,100.636,-0.000303773,0.0418268,20.9444,127.017,-0.0668056,0.0,0.0
408,101.75,44.1343,46.6477,167.045,99.9284,100.631,-0.000517131,0.041847,20.9453,126.997,-0.0644159,0.0,0.0
416,103.75,44.4731,47.1952,175.305,99.9552,100.646,-0.0005978,0.0418563,20.9458,127.017,-0.0633687,0.0,0.0
424,105.75,44.2603,46.8994,172.417,99.9645,100.646,-0.000567681,0.0417827,20.946,127.017,-0.062474,0.0,0.0
432,107.75,44.8117,47.3009,177.956,99.976,100.69,-0.000509682,0.0418168,20.9455,127.017,-0.0654462,0.0,0.0
440,109.75,44.8417,46.5446,170.809,100.018,100.712,-0.000388619,0.0418072,20.9453,127.017,-0.0635763,0.0,0.0
448,111.75,44.0793,46.4167,169.057,100.014,100.727,-0.000288193,0.0417364,20.9453,126.997,-0.0653584,0.0,0.0
456,113.75,44.2228,46.5461,176.961,100.045,100.758,-0.000153696,0.0417275,20.9449,126.977,-0.0653308,0.0,0.0
464,115.75,44.189,46.8071,173.636,100.048,100.803,-2.90076e-05,0.0417857,20.9447,126.946,-0.0691346,0.0,0.0
472,117.75,44.7876,46.609,177.16,100.035,100.791,-6.7021e-06,0.0416963,20.9437,126.946,-0.0692141,0.0,0.0
480,119.75,44.4028,46.0381,172.371,100.06,100.785,-5.89182e-05,0.0417261,20.9431,126.966,-0.0663616,0.0,0.0
488,121.75,44.2912,46.2242,173.343,100.088,100.802,-9.41706e-05,0.0417143,20.9432,126.936,-0.0654009,0.0,0.0
496,123.75,44.0857,46.1984,174.776,100.094,100.834,-0.000117019,0.0415201,20.9429,126.977,-0.0677317,0.0,0.0
504,125.75,44.37,46.6765,172.893,100.095,100.845,-0.000186466,0.0413825,20.9427,126.946,-0.0686435,0.0,0.0
512,127.75,44.3473,46.3927,174.413,100.12,100.847,-0.000262212,0.0412766,20.9427,126.926,-0.0665477,0.0,0.0
520,129.75,44.393,46.0191,175.171,100.133,100.838,-0.000239524,0.0413134,20.9427,126.946,-0.0645711,0.0,0.0
528,131.75,44.0404,46.5631,172.658,100.16,100.851,-0.000174665,0.0415306,20.944,126.936,-0.0632964,0.0,0.0
536,133.75,44.1331,46.6025,176.164,100.143,100.847,-0.000175953,0.0416757,20.9445,126.916,-0.0644132,0.0,0.0
544,135.75,44.0117,46.3431,171.308,100.141,100.836,-0.000233279,0.0417988,20.9448,126.916,-0.0636254,0.0,0.0
552,137.75,44.0435,46.7666,177.721,100.145,100.89,-0.000310255,0.0418218,20.9451,126.916,-0.0681542,0.0,0.0
560,139.75,44.1437,46.56,171.505,100.136,100.87,-0.000321611,0.0417836,20.9453,126.916,-0.0671568,0.0,0.0
568,141.75,44.293,46.1138,176.274,100.155,100.858,-0.000248175,0.0416054,20.944,126.906,-0.0642807,0.0,0.0
576,143.75,44.2901,46.416,175.521,100.176,100.863,-0.000242478,0.0415469,20.9441,126.906,-0.0628753,0.0,0.0
584,145.75,44.4701,46.1342,174.115,100.193,100.885,-0.000307442,0.0417275,20.9447,126.896,-0.0633478,0.0,0.0
592,147.75,43.8807,46.5237,169.764,100.159,100.882,-0.000395583,0.0417591,20.9451,126.906,-0.0661259,0.0,0.0
600,149.75,44.1264,46.3817,174.313,100.182,100.967,-0.000432542,0.0417454,20.9449,126.906,-0.0718111,0.0,0.0
608,151.75,44.202,45.9211,172.546,100.176,100.884,-0.000375413,0.0417117,20.9447,126.876,-0.0647395,0.0,0.0
616,153.75,43.9597,45.7081,169.001,100.192,100.889,-0.000248762,0.0415964,20.9446,126.876,-0.0637999,0.0,0.0
624,155.75,44.4113,46.1756,175.248,100.2,100.917,-8.60482e-05,0.041568,20.9446,126.876,-0.0655709,0.0,0.0
632,157.75,44.3957,46.1616,173.548,100.194,100.907,-5.28184e-05,0.0415884,20.9446,126.856,-0.0651519,0.0,0.0
640,159.75,43.7323,46.1858,179.996,100.216,100.909,-0.000203976,0.0416468,20.9446,126.896,-0.0633858,0.0,0.0
648,161.75,43.9475,46.2669,175.107,100.205,100.994,-0.00049171,0.0414115,20.9447,126.876,-0.0721161,0.0,0.0
656,163.75,43.6634,46.3342,173.952,100.217,100.888,-0.000628234,0.0413969,20.9447,126.866,-0.0613194,0.0,0.0
664,165.75,44.1036,46.4395,174.381,100.203,100.893,-0.000575313,0.0414693,20.9448,126.886,-0.0631043,0.0,0.0
666,166.25,44.1843,46.4819,172.78,100.197,100.954,-0.000555856,0.0415216,20.9448,126.866,-0.0692185,0.0,0.0

File: PEVA_Cone_HF25Scan_240820_R2.csv
Names,Time,Stack TC,Smoke TC,Exh Press,Smoke Comp,Smoke Meas,CO Meter,CO2 Meter,O2 Meter,Sample Mass,Ext Coeff,Start Test,Flame Verif
Chan Gain,,500,500,1,1,1,1,1,1,1,1,1.0,1.0
Offset,,0,0,0.143687,0,0,0,0,0,0,0,0.0,0.0
Gain,,1,1,25.011,11.7833,14.1275,1,1,1,1.00092,1.04852,1.0,1.0
Units,sec,C,C,Pa,%,%,%,%,%,g,/m,,
Baseline,,44.4931,46.5317,174.919,100.318,100.312,-0.000459727,0.0426278,20.9418,-446.876,0.000547959,,
7,1.5,43.3315,45.7137,173.991,99.8235,99.7518,-0.000274024,0.0572714,20.9315,121.491,0.0066047,0.0,0.0
14,3.25,43.4714,45.9125,171.749,99.8465,99.7751,-0.000363522,0.0579951,20.9298,121.411,0.0065784,0.0,0.0
21,5,44.0153,45.9644,172.169,99.8533,99.7432,-0.000418482,0.0579498,20.9281,121.471,0.0101495,0.0,0.0
28,6.75,43.2213,45.5518,177.743,99.8465,99.6936,-0.000366946,0.0570142,20.9265,121.431,0.0140925,0.0,0.0
35,8.5,43.5816,45.9632,175.557,99.8436,99.5143,-0.000276373,0.0559437,20.9259,121.431,0.0303888,0.0,0.0
42,10.25,44.0741,45.874,168.68,99.8713,99.256,-0.000223848,0.0544334,20.9265,121.431,0.0568404,0.0,0.0
49,12,43.8626,45.9107,173.989,99.8842,98.5576,-0.000208462,0.052617,20.9276,121.401,0.122981,0.0,0.0
56,13.75,43.6234,46.5931,155.263,99.8616,71.2286,-0.000196628,0.0510384,20.9297,121.191,3.10775,0.0,1.0
63,15.5,45.1262,48.2032,140.472,99.8817,46.5236,-0.000193014,0.0498194,20.9313,120.431,7.02714,0.0,1.0
70,17.25,49.1737,53.5682,155.972,99.8724,51.0428,-0.00020055,0.0485269,20.9329,120.02,6.17363,0.0,1.0
77,19,51.0431,56.6286,152.527,99.9055,52.0335,-0.000235969,0.047792,20.9347,119.62,5.99986,0.0,1.0
84,20.75,52.606,59.1282,153.036,99.8832,43.1262,-0.000261881,0.0542637,20.9355,119.299,7.7247,0.0,0.0
91,22.5,53.9522,60.5773,158.463,99.8958,45.7213,0.00136523,0.0982352,20.9349,119.009,7.18844,0.0,0.0
98,24.25,54.3675,61.4949,161.461,99.9105,47.4648,0.00835279,0.227974,20.8751,118.799,6.84558,0.0,0.0
105,26,54.6175,61.9858,166.279,99.8641,62.192,0.0206861,0.343466,20.7116,118.709,4.35579,0.0,0.0
112,27.75,54.9605,62.2787,165.16,99.8771,73.4783,0.0319906,0.400448,20.5154,118.609,2.82317,0.0,0.0
119,29.5,54.8418,62.1699,168.751,99.8691,86.1167,0.0393142,0.401098,20.4133,118.549,1.36268,0.0,0.0
126,31.25,54.764,62.0507,167.388,99.758,89.1364,0.0401496,0.368495,20.3797,118.509,1.03546,0.0,0.0
133,33,54.017,61.1468,176.725,99.6847,91.7607,0.037277,0.333378,20.4019,118.499,0.76181,0.0,0.0
140,34.75,53.6342,60.5342,172.059,99.6843,94.288,0.0330199,0.299569,20.4445,118.459,0.51188,0.0,0.0
147,36.5,53.0593,59.3507,173.034,99.7246,95.9005,0.0272714,0.267922,20.4878,118.459,0.359635,0.0,0.0
154,38.25,52.5169,58.1082,173.984,99.7408,97.7819,0.0215148,0.232436,20.5436,118.449,0.182428,0.0,0.0
161,40,51.7087,57.4533,173.422,99.7206,99.2168,0.0165276,0.197663,20.6062,118.509,0.0465896,0.0,0.0
168,41.75,51.4828,56.628,174.959,99.73,99.4099,0.0125394,0.166037,20.6689,118.469,0.0295637,0.0,0.0
175,43.5,49.4699,54.9228,172.456,99.7131,99.6294,0.00935961,0.140233,20.7196,118.479,0.00772438,0.0,0.0
182,45.25,49.5291,53.9585,172.657,99.7239,99.6578,0.0065219,0.115309,20.7684,118.479,0.00609193,0.0,0.0
189,47,48.4885,53.7005,171.068,99.7365,99.6289,0.00490744,0.097081,20.8083,118.479,0.00991951,0.0,0.0
196,48.75,48.5795,52.8965,171.128,99.7041,99.6289,0.00346636,0.0809147,20.8439,118.459,0.00693448,0.0,0.0
203,50.5,47.7972,52.2138,179.119,99.7012,99.6996,0.00223485,0.0684169,20.8713,118.469,0.000144727,0.0,0.0
210,52.25,47.7322,51.735,178.237,99.6886,99.66,0.00134615,0.0595302,20.8959,118.479,0.00264311,0.0,0.0
217,54,47.4557,51.1239,176.221,99.7037,99.6406,0.000745392,0.0536961,20.9127,118.519,0.00582676,0.0,0.0
224,55.75,47.2218,50.3917,168.417,99.676,99.644,0.000321028,0.0499242,20.9242,118.459,0.0029533,0.0,0.0
231,57.5,46.8502,50.2058,172.018,99.6458,99.6009,5.0053e-05,0.0475686,20.9309,118.459,0.00414685,0.0,0.0
238,59.25,47.1926,50.1491,173.291,99.6358,99.6048,-0.00013026,0.0460344,20.9347,118.459,0.00285794,0.0,0.0
245,61,47.024,50.1733,174.61,99.6185,99.594,-0.000248765,0.0450217,20.9372,118.469,0.00226056,0.0,0.0
252,62.75,46.4695,49.4279,172.697,99.621,99.5612,-0.000261344,0.0443011,20.9383,118.449,0.00551995,0.0,0.0
259,64.5,46.656,49.1066,174.582,99.602,99.5444,-0.000248871,0.0438748,20.9389,118.449,0.00531395,0.0,0.0
266,66.25,46.2175,48.9554,176.016,99.6038,99.5531,-0.000266508,0.0435331,20.9391,118.459,0.00468165,0.0,0.0
273,68,46.0347,48.8928,174.73,99.5682,99.5582,-0.00031426,0.0431773,20.9407,118.459,0.000916568,0.0,0.0
280,69.75,46.0518,48.9476,171.541,99.5764,99.5134,-0.000345701,0.0430015,20.9416,118.459,0.00582348,0.0,0.0
287,71.5,45.7227,48.0844,176.715,99.5415,99.4974,-0.000391268,0.0427653,20.9427,118.459,0.00407561,0.0,0.0
294,73.25,45.6641,48.4413,173.609,99.5689,99.4854,-0.000442352,0.0426119,20.9433,118.429,0.00771561,0.0,0.0
301,75,45.3297,48.7851,175.854,99.5221,99.4755,-0.00043372,0.0425055,20.9441,118.439,0.00431453,0.0,0.0
308,76.75,45.8126,48.0012,174.012,99.5441,99.4724,-0.000365858,0.0424455,20.9436,118.449,0.00662004,0.0,0.0
315,78.5,45.4957,47.3253,173.074,99.5153,99.4798,-0.00028177,0.0424499,20.943,118.469,0.00328431,0.0,0.0
322,80.25,45.196,47.5784,173.029,99.507,99.4453,-0.000286424,0.0424156,20.9427,118.439,0.00570952,0.0,0.0
329,82,45.265,47.752,175.029,99.5149,99.4569,-0.000343695,0.0424182,20.9425,118.439,0.00536326,0.0,0.0
336,83.75,44.8957,47.476,170.45,99.5358,99.4617,-0.000377465,0.0424468,20.9432,118.419,0.00685341,0.0,0.0
343,85.5,45.2943,47.8373,176.498,99.5063,99.4759,-0.000352192,0.0424015,20.9428,118.449,0.00281191,0.0,0.0
350,87.25,44.7418,47.5454,173.431,99.5092,99.4548,-0.00025494,0.04242,20.9426,118.459,0.00503123,0.0,0.0
357,89,44.7795,47.4374,171.486,99.5002,99.4703,-0.000149688,0.042531,20.9425,118.459,0.00276477,0.0,0.0
364,90.75,44.8065,46.7238,173.599,99.521,99.4746,-0.000122631,0.0424385,20.9427,118.439,0.0042948,0.0,0.0
371,92.5,44.8202,47.2884,177.902,99.539,99.4681,-0.000158125,0.0422871,20.9429,118.419,0.0065532,0.0,0.0
378,94.25,44.4846,47.2311,168.741,99.5326,99.4944,-0.00013072,0.0421592,20.943,118.429,0.00352434,0.0,0.0
385,96,45.0912,46.8608,174.091,99.5326,99.5328,-0.00013907,0.0421343,20.943,118.389,-2.24768e-05,0.0,0.0
392,97.75,44.5054,46.4869,172.604,99.5739,99.5324,-0.000296695,0.0421819,20.943,118.399,0.00383779,0.0,0.0
399,99.5,44.5308,46.787,172.772,99.57,99.5397,-0.000457097,0.0421853,20.943,118.419,0.00279547,0.0,0.0
406,101.25,44.7701,46.5948,171.721,99.6056,99.522,-0.000482833,0.0422637,20.943,118.429,0.00771671,0.0,0.0
413,103,44.8901,46.7845,175.806,99.6117,99.5444,-0.000443497,0.0421843,20.943,118.419,0.00620917,0.0,0.0
420,104.75,44.3378,46.7887,178.984,99.6045,99.6233,-0.000492564,0.0420392,20.943,118.419,-0.00174129,0.0,0.0
427,106.5,45.0455,46.4584,170.597,99.6268,99.6195,-0.000604229,0.0418776,20.943,118.429,0.000675375,0.0,0.0
434,108.25,44.6973,46.6405,174.779,99.6444,99.61,-0.000638043,0.0417445,20.943,118.409,0.0031769,0.0,0.0
441,110,44.0239,46.4799,169.705,99.6559,99.6044,-0.000580739,0.0416644,20.943,118.409,0.00475727,0.0,0.0
448,111.75,44.6041,46.6431,174.865,99.6728,99.6315,-0.000450248,0.0417305,20.9435,118.399,0.0038093,0.0,0.0
455,113.5,44.2669,46.51,171.665,99.6854,99.663,-0.000311278,0.0418088,20.9448,118.369,0.00206544,0.0,0.0
462,115.25,45.0271,46.3838,173.24,99.7188,99.7466,-0.000311299,0.0419438,20.9454,118.329,-0.00256545,0.0,0.0
469,117,44.6824,46.4192,172.509,99.7501,99.7147,-0.000358375,0.0418821,20.9458,118.389,0.00326239,0.0,0.0
476,118.75,44.5746,46.4102,181.12,99.7508,99.7238,-0.00036239,0.0418803,20.9459,118.359,0.00249294,0.0,0.0
483,120.5,44.8201,46.1269,175.297,99.7472,99.7372,-0.000297517,0.0419245,20.946,118.349,0.000929724,0.0,0.0
490,122.25,44.3361,46.1448,171.146,99.8044,99.7742,-0.000230154,0.0418326,20.946,118.389,0.00278231,0.0,0.0
497,124,44.316,46.5422,173.377,99.7987,99.8113,-0.0001803,0.0417793,20.946,118.389,-0.00116558,0.0,0.0
504,125.75,44.204,46.8935,171.33,99.8321,99.8148,-0.000215112,0.0418876,20.9449,118.369,0.00159736,0.0,0.0
511,127.5,44.8074,46.7884,173.23,99.845,99.8277,-0.000332548,0.0419394,20.9443,118.379,0.00159845,0.0,0.0
518,129.25,44.5618,46.61,170.955,99.8857,99.8833,-0.000479405,0.0419414,20.944,118.339,0.000218186,0.0,0.0
525,131,44.4198,46.7658,175.93,99.9015,99.8958,-0.000565279,0.0419946,20.9439,118.369,0.000524077,0.0,0.0
532,132.75,44.6192,46.8298,177.39,99.9206,99.9281,-0.000626088,0.0418241,20.9438,118.389,-0.000697903,0.0,0.0
539,134.5,43.795,46.5127,172.775,99.9547,99.9488,-0.000725066,0.0418006,20.9437,118.359,0.000540523,0.0,0.0
546,136.25,44.6794,46.9217,171.605,99.9835,99.9777,-0.000740475,0.0417428,20.9437,118.369,0.000529559,0.0,0.0
553,138,44.3134,46.2785,177.489,99.999,100.003,-0.000613454,0.0418127,20.9447,118.379,-0.000348122,0.0,0.0
560,139.75,44.2249,46.4953,172.753,100.022,100.002,-0.000436379,0.0418855,20.9454,118.359,0.00177494,0.0,0.0
567,141.5,44.3201,46.2958,171.694,100.023,100.032,-0.000436552,0.041957,20.9457,118.349,-0.000834967,0.0,0.0
574,143.25,44.4831,46.7364,175.513,100.045,100.046,-0.000533256,0.0417983,20.9459,118.339,-0.000118963,0.0,0.0
581,145,43.8975,46.6742,174.471,100.122,100.09,-0.000590381,0.0416584,20.946,118.299,0.00295001,0.0,0.0
588,146.75,44.3361,46.5699,172.234,100.13,100.137,-0.000629386,0.0416366,20.9448,118.339,-0.000646915,0.0,0.0
595,148.5,44.4748,46.3956,174.192,100.14,100.123,-0.000620597,0.0415945,20.9442,118.339,0.00151843,0.0,0.0
602,150.25,44.6875,46.5654,171.977,100.154,100.215,-0.000527501,0.0416713,20.944,118.339,-0.00562584,0.0,0.0
609,152,44.0611,46.7038,177.654,100.227,100.198,-0.000417804,0.0417336,20.9438,118.339,0.0026464,0.0,0.0
616,153.75,44.3205,46.2735,171.641,100.254,100.22,-0.000388102,0.0417887,20.9438,118.369,0.00318128,0.0,0.0
623,155.5,44.5754,47.1002,175.764,100.278,100.302,-0.000455628,0.0417433,20.9437,118.339,-0.00222931,0.0,0.0
630,157.25,44.9678,46.4734,172.394,100.283,100.297,-0.000540966,0.0417134,20.9437,118.339,-0.00126646,0.0,0.0
637,159,44.3615,46.785,171.789,100.316,100.333,-0.000607284,0.0417011,20.9444,118.309,-0.00150716,0.0,0.0
644,160.75,44.206,46.5068,172.197,100.362,100.36,-0.000657421,0.0417771,20.9447,118.309,0.00018968,0.0,0.0