Folder: fsri_materials_database/01_Data/Polyisocyanurate_Spray_Foam_Insulation/Cone (part 3)

File: Polyisocyanurate_Spray_Foam_Insulation_Cone_HF75Scan_241113_R1.csv
Names,Time,Stack TC,Smoke TC,Exh Press,Smoke Comp,Smoke Meas,CO Meter,CO2 Meter,O2 Meter,Sample Mass,Ext Coeff,Start Test,Flame Verif
Chan Gain,,500,500,1,1,1,1,1,1,1,1,1.0,1.0
Offset,,0,0,0.138019,0,0,0,0,0,0,0,0.0,0.0
Gain,,1,1,25.011,12.4314,2004.68,1,1,1,1.00093,0.957506,1.0,1.0
Units,sec,C,C,Pa,%,%,%,%,%,g,/m,,
Baseline,,48.1389,50.8937,159.735,100.146,101.086,0.000820811,0.0419855,20.9462,-445.049,-0.0781555,,
8,1.75,48.7213,51.9573,139.483,100.44,52.919,0.000521579,0.0414969,20.9491,44.7117,5.38221,0.0,1.0
16,3.75,52.9298,58.7997,135.843,100.454,49.6765,0.000534811,0.0416344,20.949,43.881,5.91443,0.0,1.0
24,5.75,57.8876,65.7903,128.284,100.475,38.9704,0.00054491,0.0416722,20.9489,43.2804,7.95488,0.0,1.0
32,7.75,62.977,73.0522,121.44,100.481,38.2362,0.000724018,0.0425937,20.9475,42.6098,8.11518,0.0,1.0
40,9.75,68.0396,81.1945,124.864,100.509,41.7234,0.00335661,0.0900313,20.9452,41.8591,7.38444,0.0,0.0
48,11.75,73.0463,87.9424,120.895,100.519,35.8503,0.012708,0.268731,20.9003,41.1784,8.65953,0.0,0.0
56,13.75,77.3494,93.9251,118.571,100.542,34.382,0.0296385,0.513979,20.5964,40.4978,9.0127,0.0,0.0
64,15.75,80.8465,99.1273,120.272,100.531,44.354,0.0542474,0.729525,20.2299,39.8072,6.87273,0.0,0.0
72,17.75,83.1434,102.407,124.596,100.58,39.2763,0.0756904,0.895293,19.891,39.1666,7.89799,0.0,0.0
80,19.75,85.9435,105.725,116.885,100.57,37.9915,0.090342,1.01203,19.649,38.556,8.1765,0.0,0.0
88,21.75,88.3003,108.861,129.288,100.589,35.8503,0.0985052,1.08011,19.4948,37.9654,8.66533,0.0,0.0
96,23.75,90.4165,111.436,114.596,100.581,34.7491,0.103317,1.10919,19.3958,37.3749,8.9267,0.0,0.0
104,25.75,92.1034,113.883,125.442,100.628,34.382,0.104272,1.09566,19.3499,36.6642,9.01983,0.0,0.0
112,27.75,93.5592,116.224,119.088,100.63,35.6668,0.102892,1.08191,19.3603,36.0637,8.71192,0.0,0.0
120,29.75,95.7101,118.86,126.396,100.634,33.9538,0.10057,1.07505,19.3733,35.4131,9.12564,0.0,0.0
128,31.75,97.415,120.668,119.596,100.643,34.8103,0.0984177,1.06139,19.3906,34.7925,8.91716,0.0,0.0
136,33.75,98.3874,122.059,126.344,100.647,28.5089,0.0969603,1.05024,19.4073,34.302,10.5947,0.0,0.0
144,35.75,98.9712,122.087,127.767,100.659,28.2642,0.0962591,1.04747,19.417,33.8816,10.6681,0.0,0.0
152,37.75,98.2235,120.428,141.875,100.696,46.8623,0.0963163,1.06079,19.4212,33.6714,6.42447,0.0,0.0
160,39.75,95.9602,117.598,143.223,100.687,60.505,0.096765,1.06918,19.4045,33.5313,4.27765,0.0,0.0
168,41.75,94.4147,113.967,152.913,100.703,79.1031,0.0955964,1.05323,19.3923,33.3711,2.02775,0.0,0.0
176,43.75,91.9472,109.961,153.714,100.724,78.8584,0.0913978,1.00483,19.3931,33.3311,2.05551,0.0,0.0
184,45.75,89.4712,106.547,152.71,100.728,87.1174,0.0818989,0.875358,19.4545,33.2811,1.21924,0.0,0.0
192,47.75,86.8746,103.079,149.478,100.728,90.2987,0.0684166,0.724559,19.6206,33.2711,0.918062,0.0,0.0
200,49.75,84.7311,99.4907,154.673,100.759,92.0117,0.0542433,0.584656,19.8427,33.231,0.762783,0.0,0.0
208,51.75,82.9388,96.639,155.355,100.763,95.1318,0.0384429,0.45435,20.0605,33.181,0.48304,0.0,0.0
216,53.75,80.8758,93.62,152.211,100.771,94.7647,0.0264287,0.354756,20.2808,33.1609,0.516145,0.0,0.0
224,55.75,78.9312,91.4217,154.845,100.776,96.4777,0.0182629,0.282984,20.4407,33.1409,0.366118,0.0,0.0
232,57.75,77.0006,88.1268,155.093,100.785,96.2941,0.0128744,0.230749,20.5564,33.1009,0.382839,0.0,0.0
240,59.75,74.3254,84.5985,157.021,100.8,97.3953,0.00987068,0.196993,20.6415,33.0909,0.288628,0.0,0.0
248,61.75,72.763,82.9683,156.94,100.797,96.7224,0.00778915,0.169278,20.714,33.0308,0.346548,0.0,0.0
256,63.75,71.4099,80.6206,157.092,100.824,96.7224,0.00669759,0.149031,20.7569,33.0809,0.348793,0.0,0.0
264,65.75,70.4244,78.8971,153.18,100.825,98.2518,0.00621487,0.133027,20.792,33.0208,0.217176,0.0,0.0
272,67.75,69.3806,76.9621,158.295,100.799,96.8447,0.00616425,0.122737,20.8186,32.9808,0.336088,0.0,0.0
280,69.75,68.045,75.9408,155.412,100.833,96.6612,0.00634709,0.116128,20.8367,32.9407,0.354896,0.0,0.0
288,71.75,67.245,74.5686,152.287,100.816,98.3742,0.00650035,0.112782,20.8475,32.9507,0.205963,0.0,0.0
296,73.75,66.7671,73.268,154.55,100.847,97.4565,0.00650731,0.111932,20.8548,32.9207,0.287272,0.0,0.0
304,75.75,66.0437,72.8318,156.459,100.825,98.8636,0.00639185,0.11203,20.858,32.8907,0.165039,0.0,0.0
312,77.75,65.3486,71.2197,155.46,100.842,97.3953,0.00626505,0.111857,20.8594,32.8907,0.292105,0.0,0.0
320,79.75,65.0589,70.4825,156.808,100.815,100.638,0.00620718,0.111969,20.8599,32.8807,0.0147616,0.0,0.0
328,81.75,64.15,69.7657,156.343,100.812,96.5389,0.00627313,0.112483,20.8602,32.8306,0.363765,0.0,0.0
336,83.75,63.8963,68.8665,153.696,100.817,96.9059,0.00633896,0.112967,20.8601,32.8406,0.3323,0.0,0.0
344,85.75,63.2071,68.6019,157.383,100.8,100.515,0.00636249,0.112872,20.859,32.7906,0.0237164,0.0,0.0
352,87.75,62.7499,67.6456,157.071,100.755,96.6,0.00644565,0.112634,20.8593,32.7506,0.353733,0.0,0.0
360,89.75,62.43,66.9394,153.145,100.764,97.1506,0.00652626,0.112284,20.8599,32.7506,0.306692,0.0,0.0
368,91.75,61.9559,66.3781,155.718,100.738,96.4777,0.00659034,0.11223,20.8606,32.7105,0.362955,0.0,0.0
376,93.75,61.6497,65.3374,154.325,100.742,97.7012,0.00678286,0.112265,20.8612,32.7005,0.257452,0.0,0.0
384,95.75,61.3675,65.5106,152.684,100.71,97.8236,0.00691191,0.112058,20.8615,32.6305,0.24422,0.0,0.0
392,97.75,61.1352,65.1546,152.594,100.698,96.4777,0.00685707,0.111205,20.8618,32.7205,0.359571,0.0,0.0
400,99.75,61.202,64.6408,154.02,100.685,96.5389,0.00670482,0.110277,20.864,32.6705,0.35317,0.0,0.0
408,101.75,60.5911,64.0574,155.966,100.695,98.1907,0.00668595,0.109368,20.8653,32.5904,0.211496,0.0,0.0
416,103.75,61.3175,65.3468,154.283,100.666,97.8848,0.00677912,0.108943,20.8672,32.5904,0.235297,0.0,0.0
424,105.75,61.4478,64.8648,157.138,100.644,97.5177,0.00697099,0.108564,20.8668,32.6004,0.265017,0.0,0.0
432,107.75,61.1708,63.6725,154.945,100.623,96.4165,0.00712835,0.10759,20.8676,32.6104,0.358662,0.0,0.0
440,109.75,60.6952,63.5923,153.303,100.574,97.7624,0.00714062,0.105898,20.8681,32.5704,0.238171,0.0,0.0
448,111.75,60.8975,63.6207,157.54,100.583,96.9059,0.0070444,0.104146,20.8693,32.5504,0.312809,0.0,0.0
456,113.75,60.291,63.6979,154.987,100.565,98.4354,0.00691538,0.103158,20.8718,32.5404,0.17976,0.0,0.0
464,115.75,60.4327,63.1186,153.448,100.545,97.273,0.00681367,0.101556,20.8743,32.5103,0.277853,0.0,0.0
472,117.75,60.0216,63.2112,156.651,100.522,98.0071,0.00682835,0.100145,20.8752,32.5103,0.212832,0.0,0.0
480,119.75,59.8688,63.0485,159.526,100.498,97.7624,0.0069748,0.0989606,20.8772,32.4903,0.231832,0.0,0.0
488,121.75,59.7597,62.6709,156.163,100.495,100.026,0.00717476,0.0979372,20.8792,32.4803,0.0392586,0.0,0.0
496,123.75,59.8749,62.8467,156.107,100.489,100.454,0.00735815,0.0968029,20.8803,32.4703,0.00293118,0.0,0.0
504,125.75,59.6073,61.9205,155.933,100.453,98.7413,0.00749615,0.0959571,20.8818,32.4603,0.144348,0.0,0.0
512,127.75,59.551,61.8703,153.468,100.436,99.8425,0.00761328,0.094776,20.8825,32.4303,0.0497999,0.0,0.0
520,129.75,59.3036,62.3733,158.591,100.4,99.9648,0.00779753,0.0925802,20.884,32.4002,0.0364657,0.0,0.0
528,131.75,59.2926,61.4267,153.503,100.366,100.76,0.00801192,0.0901859,20.8863,32.3602,-0.0329172,0.0,0.0
536,133.75,59.0363,61.6716,154.927,100.364,100.026,0.00817126,0.087641,20.8893,32.3502,0.0283438,0.0,0.0
544,135.75,58.7494,62.027,155.744,100.348,100.148,0.00817685,0.0858721,20.8914,32.3702,0.0167104,0.0,0.0
552,137.75,58.5568,61.5378,158.806,100.302,98.313,0.00819565,0.0846185,20.8936,32.3302,0.168188,0.0,0.0
560,139.75,58.2156,61.1425,159.374,100.273,99.2919,0.00830367,0.0833784,20.8958,32.3402,0.082593,0.0,0.0
568,141.75,58.19,61.0798,155.921,100.256,99.8425,0.0082841,0.0820728,20.8973,32.3902,0.0347159,0.0,0.0
576,143.75,58.5383,60.5771,160.123,100.238,99.5978,0.00807556,0.0808088,20.8993,32.2501,0.0538012,0.0,0.0
584,145.75,58.0259,60.7095,156.992,100.206,100.271,0.00793286,0.0792607,20.9008,32.3402,-0.00546064,0.0,0.0
592,147.75,58.1661,60.6221,155.908,100.186,99.6589,0.00807958,0.0776922,20.9023,32.3001,0.0442879,0.0,0.0
600,149.75,57.8884,60.6482,154.322,100.165,98.0683,0.00822394,0.0766503,20.9033,32.2201,0.177676,0.0,0.0
608,151.75,58.3659,60.2072,152.759,100.129,99.5978,0.00824882,0.0757809,20.9049,32.2901,0.0446415,0.0,0.0
616,153.75,58.0318,60.7719,155.312,100.117,100.76,0.00812446,0.0748247,20.9059,32.3402,-0.0538024,0.0,0.0
624,155.75,57.8866,60.856,161.951,100.086,99.2307,0.00790917,0.0736071,20.907,32.4503,0.0720571,0.0,0.0
632,157.75,58.1486,61.1531,159.774,100.06,101.005,0.00765737,0.0725353,20.9087,32.2501,-0.0789199,0.0,0.0
640,159.75,57.8564,60.3129,157.772,100.047,99.2307,0.00751364,0.0720046,20.9101,32.2301,0.0687775,0.0,0.0
648,161.75,57.7882,60.2791,155.767,100.025,99.5366,0.00748646,0.071598,20.9114,32.2301,0.0410772,0.0,0.0
656,163.75,57.6174,59.8855,159.704,99.9992,98.986,0.00746013,0.0706953,20.912,32.2101,0.0855342,0.0,0.0
664,165.75,57.4863,59.7308,151.43,99.987,99.1083,0.00749632,0.0691141,20.9122,32.17,0.0741385,0.0,0.0
672,167.75,57.2097,60.2909,157.885,99.9783,100.148,0.00757037,0.0674071,20.9133,32.16,-0.0142751,0.0,0.0
680,169.75,57.2962,59.9904,158.55,99.9555,100.21,0.00767545,0.0662892,20.9154,32.12,-0.0213173,0.0,0.0
688,171.75,57.7043,59.502,150.796,99.9388,99.0472,0.0076051,0.0651076,20.9176,32.19,0.0752758,0.0,0.0
696,173.75,57.2861,60.0132,157.11,99.9415,98.6189,0.00745738,0.0640765,20.9199,32.17,0.111893,0.0,0.0
704,175.75,57.4518,59.9269,159.552,99.9073,99.2919,0.00743107,0.0628617,20.9209,32.2401,0.0519028,0.0,0.0
712,177.75,57.3699,59.5254,155.358,99.9191,101.433,0.00745168,0.0612696,20.9226,32.14,-0.126311,0.0,0.0
714,178.25,57.2608,59.354,152.349,99.9096,98.8636,0.0074492,0.0609587,20.9233,32.2301,0.088399,0.0,0.0

File: Polyisocyanurate_Spray_Foam_Insulation_Cone_HF75Scan_241113_R2.csv
Names,Time,Stack TC,Smoke TC,Exh Press,Smoke Comp,Smoke Meas,CO Meter,CO2 Meter,O2 Meter,Sample Mass,Ext Coeff,Start Test,Flame Verif
Chan Gain,,500,500,1,1,1,1,1,1,1,1,1.0,1.0
Offset,,0,0,0.138019,0,0,0,0,0,0,0,0.0,0.0
Gain,,1,1,25.011,12.4314,2004.68,1,1,1,1.00093,0.957506,1.0,1.0
Units,sec,C,C,Pa,%,%,%,%,%,g,/m,,
Baseline,,54.6443,56.4743,158.974,98.7977,99.2179,0.000239213,0.0414949,20.9507,-445.296,-0.0351932,,
7,1.5,52.9593,55.0311,146.778,99.8265,57.5685,0.000599763,0.0493822,20.9442,43.0702,4.6234,0.0,1.0
14,3.25,56.5422,59.9581,127.277,100.263,40.9893,0.000592457,0.0492013,20.9449,42.4496,7.51294,0.0,1.0
21,5,61.3256,67.0527,122.416,100.297,38.6645,0.000601974,0.0487796,20.945,41.7089,8.00621,0.0,1.0
28,6.75,65.6431,73.7466,116.979,100.31,34.0761,0.000611319,0.0486061,20.9441,41.0783,9.06834,0.0,1.0
35,8.5,70.985,80.5,115.762,100.347,34.2597,0.000944808,0.0571816,20.9425,40.4377,9.02627,0.0,1.0
42,10.25,74.8774,87.2837,114.179,100.395,36.5844,0.00408494,0.12992,20.9408,39.9373,8.4789,0.0,0.0
49,12,79.154,92.6194,121.511,100.411,34.6879,0.0113807,0.268238,20.9135,39.2867,8.9273,0.0,0.0
56,13.75,82.5353,97.2952,127.389,100.434,34.9326,0.0283942,0.534279,20.7439,38.7061,8.87022,0.0,0.0
63,15.5,85.9371,102.07,127.749,100.495,33.342,0.050348,0.752699,20.4768,38.0155,9.2667,0.0,0.0
70,17.25,88.2015,105.67,127.47,100.519,35.4221,0.0717506,0.93162,20.0555,37.525,8.76047,0.0,0.0
77,19,91.1102,109.031,122.75,100.541,35.8503,0.0878677,1.04793,19.7281,36.9145,8.6613,0.0,0.0
84,20.75,93.2546,111.916,123.291,100.574,37.2574,0.097876,1.1212,19.5029,36.3239,8.34077,0.0,0.0
91,22.5,94.6398,114.421,116.764,100.615,35.7891,0.103125,1.16015,19.3629,35.8234,8.68183,0.0,0.0
98,24.25,96.7505,117.187,124.619,100.652,33.0973,0.105567,1.16401,19.2885,35.2529,9.34168,0.0,0.0
105,26,98.7148,120.069,118.903,100.691,34.015,0.106481,1.15095,19.2564,34.6023,9.11524,0.0,0.0
112,27.75,100.965,122.733,121.328,100.697,33.4644,0.106136,1.13002,19.2642,34.0318,9.25284,0.0,0.0
119,29.5,102.502,125.3,122.358,100.731,31.0172,0.104688,1.11362,19.2903,33.4512,9.89344,0.0,0.0
126,31.25,103.998,126.814,128.376,100.765,29.8549,0.102645,1.09788,19.321,32.9107,10.2171,0.0,0.0
133,33,105.285,128.741,121.743,100.808,27.836,0.101483,1.09582,19.3439,32.5304,10.8088,0.0,0.0
140,34.75,105.617,128.042,131.61,100.814,32.5467,0.101732,1.11203,19.3548,32.2701,9.49609,0.0,0.0
147,36.5,103.717,125.873,137.772,100.824,53.3472,0.103167,1.12959,19.339,32.12,5.34656,0.0,0.0
154,38.25,102.302,122.703,148.446,100.86,77.696,0.104542,1.13827,19.3107,32.12,2.19162,0.0,0.0
161,40,99.2785,118.702,152.144,100.905,85.2821,0.104662,1.13275,19.2934,32.0699,1.41284,0.0,0.0
168,41.75,96.8687,114.989,150.362,100.887,91.5834,0.101395,1.08527,19.2882,32.0599,0.812617,0.0,0.0
175,43.5,94.575,111.666,151.446,100.902,93.6023,0.092115,0.986881,19.3218,32.0699,0.630739,0.0,0.0
182,45.25,91.8918,108.256,153.257,100.907,93.5411,0.0782786,0.820123,19.468,32.0599,0.636641,0.0,0.0
189,47,88.9891,103.96,151.904,100.921,95.0706,0.0624395,0.650137,19.6604,32.0499,0.501621,0.0,0.0
196,48.75,86.8882,101.034,151.178,100.938,95.6824,0.0476511,0.500965,19.8861,32.0799,0.449103,0.0,0.0
203,50.5,84.989,98.2977,154.86,100.943,96.9059,0.0321276,0.369543,20.1296,32.0299,0.342787,0.0,0.0
210,52.25,83.2581,96.077,153.446,100.926,95.7435,0.0218359,0.272314,20.3682,32.12,0.442755,0.0,0.0
217,54,81.9536,94.025,155.013,100.926,98.6801,0.015431,0.207684,20.5375,32.0499,0.188985,0.0,0.0
224,55.75,80.3153,91.6025,160.033,100.946,96.3553,0.0119242,0.16462,20.6576,31.9999,0.390898,0.0,0.0
231,57.5,78.68,89.3258,156.317,100.929,96.5389,0.0101401,0.139685,20.7411,31.9698,0.373496,0.0,0.0
238,59.25,77.6382,87.6855,151.768,100.924,96.9059,0.00925121,0.127208,20.7934,31.9498,0.34124,0.0,0.0
245,61,76.6431,86.5172,151.459,100.919,94.7035,0.00876,0.122077,20.8237,31.9398,0.533892,0.0,0.0
252,62.75,76.0652,84.5999,153.231,100.923,96.1106,0.00844526,0.119835,20.838,31.8798,0.410332,0.0,0.0
259,64.5,74.9582,83.4405,147.605,100.903,96.6,0.00819101,0.118305,20.8449,31.8697,0.366027,0.0,0.0
266,66.25,74.1812,82.4223,153.223,100.867,97.2118,0.0079667,0.117078,20.8491,31.8297,0.31,0.0,0.0
273,68,73.5983,80.8234,155.205,100.855,96.2941,0.00769562,0.115647,20.8523,31.8097,0.388718,0.0,0.0
280,69.75,72.6427,79.9517,153.342,100.859,96.9059,0.00746923,0.11475,20.8551,31.7997,0.335808,0.0,0.0
287,71.5,71.8112,78.9112,154.881,100.833,99.1083,0.00740143,0.114328,20.8576,31.7797,0.144938,0.0,0.0
294,73.25,71.7176,78.0123,154.62,100.83,97.1506,0.00742766,0.113945,20.8588,31.7396,0.312255,0.0,0.0
301,75,70.6543,77.1126,148.095,100.822,96.7836,0.00748003,0.113625,20.8596,31.7396,0.343323,0.0,0.0
308,76.75,70.2863,76.2218,153.033,100.796,97.7624,0.00745098,0.112569,20.861,31.7296,0.256653,0.0,0.0
315,78.5,69.9048,75.6567,158.686,100.778,98.6801,0.00730122,0.11191,20.8621,31.7196,0.176726,0.0,0.0
322,80.25,69.4671,74.8279,151.723,100.784,95.3765,0.00719294,0.111942,20.8633,31.6996,0.46317,0.0,0.0
329,82,69.2242,73.9021,154.557,100.739,98.2518,0.00723246,0.112052,20.864,31.6395,0.209998,0.0,0.0
336,83.75,68.6573,73.6555,152.394,100.718,98.313,0.00752226,0.111716,20.8643,31.6595,0.20303,0.0,0.0
343,85.5,68.1535,72.5189,153.002,100.696,96.7836,0.00774557,0.11093,20.8643,31.6195,0.332824,0.0,0.0
350,87.25,67.8338,72.582,151.361,100.704,97.273,0.00786489,0.109244,20.8647,31.6195,0.291185,0.0,0.0
357,89,66.9471,71.7422,157.289,100.662,97.273,0.00777253,0.107682,20.8659,31.6295,0.287609,0.0,0.0
364,90.75,67.4412,71.4042,148.204,100.639,96.1718,0.00759899,0.106391,20.8684,31.5695,0.381368,0.0,0.0
371,92.5,66.9534,71.1833,149.689,100.618,97.1506,0.00748456,0.105153,20.8696,31.5695,0.29454,0.0,0.0
378,94.25,66.842,70.6622,152.888,100.614,95.3765,0.00754459,0.104022,20.8711,31.5795,0.448994,0.0,0.0
385,96,66.0611,70.2197,148.648,100.587,95.8047,0.00771351,0.103139,20.8721,31.5294,0.409148,0.0,0.0
392,97.75,66.039,69.7293,153.912,100.562,96.1718,0.00791678,0.102397,20.8732,31.5194,0.374906,0.0,0.0
399,99.5,65.7522,69.2143,153.377,100.525,97.0283,0.00805981,0.101741,20.8743,31.5094,0.29733,0.0,0.0
406,101.25,65.2643,69.199,156.853,100.505,95.6212,0.00815365,0.100888,20.8751,31.5094,0.41841,0.0,0.0
413,103,65.4793,68.6124,151.245,100.496,95.7435,0.00823347,0.0997821,20.8764,31.4994,0.406907,0.0,0.0
420,104.75,65.3364,68.4772,149.21,100.457,99.7201,0.00828147,0.0979851,20.8789,31.4694,0.0618747,0.0,0.0
427,106.5,64.5024,67.972,153.899,100.431,96.6,0.00830045,0.096319,20.881,31.4594,0.32665,0.0,0.0
434,108.25,64.3192,67.6694,153.471,100.4,96.4165,0.0083246,0.0948116,20.883,31.3993,0.34002,0.0,0.0
441,110,64.417,67.5141,157.536,100.395,94.9482,0.00827567,0.0931855,20.885,31.3993,0.46853,0.0,0.0
448,111.75,64.2566,67.3154,155.404,100.369,95.8047,0.00812783,0.0915826,20.8864,31.4193,0.390945,0.0,0.0
455,113.5,63.9871,67.0925,155.525,100.325,94.3976,0.00796442,0.0897895,20.8889,31.4093,0.511504,0.0,0.0
462,115.25,63.9945,66.2516,152.547,100.32,94.6423,0.00783937,0.0882023,20.8911,31.3993,0.489378,0.0,0.0
469,117,63.6954,66.6312,154.299,100.291,96.3553,0.00776998,0.0871292,20.8935,31.3893,0.33627,0.0,0.0
476,118.75,63.6378,65.9267,155.463,100.385,94.3364,0.00779801,0.0857875,20.8952,31.3793,0.521935,0.0,0.0
483,120.5,63.4541,66.032,153.603,100.424,96.9671,0.00789983,0.0847202,20.8972,31.3693,0.294192,0.0,0.0
490,122.25,63.6146,65.542,150.052,100.482,95.3765,0.00800265,0.0837289,20.8982,31.3593,0.438029,0.0,0.0
497,124,63.2728,65.9637,160.3,100.541,97.5789,0.00810774,0.0828843,20.8989,31.3392,0.251197,0.0,0.0
504,125.75,62.938,65.8192,154.541,100.607,95.1318,0.00822763,0.0818438,20.9002,31.3292,0.46997,0.0,0.0
511,127.5,62.3165,65.3309,156.376,100.662,95.4988,0.00838051,0.0804447,20.9009,31.3392,0.442279,0.0,0.0
518,129.25,62.5704,65.0628,153.505,100.704,94.7035,0.00853065,0.0789291,20.9025,31.3092,0.516001,0.0,0.0
525,131,62.6577,65.0906,156.237,100.739,96.7224,0.00862708,0.0773386,20.9043,31.2892,0.341774,0.0,0.0
532,132.75,62.1459,64.4743,153.967,100.764,96.1718,0.00862302,0.0754213,20.905,31.2692,0.39181,0.0,0.0
539,134.5,62.4866,64.5313,154.202,100.802,95.6212,0.0085255,0.0740089,20.9064,31.2992,0.443197,0.0,0.0
546,136.25,61.8183,64.0525,158.684,100.82,99.353,0.0084324,0.0729234,20.9082,31.2892,0.123087,0.0,0.0
553,138,61.9773,64.2602,153.593,100.822,97.273,0.00832252,0.0721282,20.9101,31.2792,0.300988,0.0,0.0
560,139.75,61.9494,63.8748,153.279,100.868,97.5789,0.00816482,0.0708535,20.9111,31.2291,0.278408,0.0,0.0
567,141.5,61.9042,63.9706,154.431,100.875,97.5177,0.00799745,0.0697804,20.912,31.2392,0.284308,0.0,0.0
574,143.25,61.6353,63.8253,155.832,100.855,97.4565,0.00785572,0.0683142,20.9142,31.2191,0.287905,0.0,0.0
581,145,61.3388,63.7312,152.045,100.882,96.5389,0.00778578,0.0672425,20.9154,31.2091,0.369642,0.0,0.0
588,146.75,61.3408,63.7866,155.328,100.856,97.946,0.00774513,0.0664245,20.917,31.2091,0.245924,0.0,0.0
595,148.5,61.5131,63.7672,151.602,100.839,97.7012,0.00768972,0.0658884,20.918,31.2091,0.265545,0.0,0.0
602,150.25,61.3508,63.5027,151.377,100.817,98.6801,0.00759306,0.0655,20.9196,31.2091,0.179919,0.0,0.0
609,152,61.2795,63.2951,158.969,100.776,99.5366,0.00749878,0.0651743,20.9204,31.1991,0.10395,0.0,0.0
616,153.75,61.522,63.3131,153.174,100.74,98.8024,0.00742611,0.0647115,20.9208,31.1791,0.163155,0.0,0.0
623,155.5,60.9898,63.0341,155.447,100.697,97.1506,0.00742139,0.0642866,20.9212,31.1791,0.301124,0.0,0.0
630,157.25,60.6386,62.4265,154.656,100.665,98.0683,0.00747534,0.0636626,20.9215,31.1891,0.2195,0.0,0.0
637,159,60.663,63.0462,151.707,100.61,96.9059,0.00748653,0.0630127,20.9217,31.1691,0.315026,0.0,0.0
644,160.75,60.814,62.7871,155.537,100.535,98.986,0.00743474,0.0621178,20.9218,31.1391,0.130438,0.0,0.0
651,162.5,60.2459,63.0041,155.2,100.476,100.882,0.00732403,0.0613615,20.9237,31.1391,-0.0338768,0.0,0.0
658,164.25,60.4648,62.299,150.871,100.407,97.8236,0.00729521,0.0609205,20.9251,31.1391,0.218902,0.0,0.0
662,165.25,60.3665,62.9612,153.083,100.379,97.4565,0.00730519,0.0606879,20.9256,31.1591,0.24816,0.0,0.0

File: Polyisocyanurate_Spray_Foam_Insulation_HRRPUA_25.csv
Time after Ignition,Polyisocyanurate_Spray_Foam_Insulation_R1,Polyisocyanurate_Spray_Foam_Insulation_R2,Mean,Std. Dev.
0.0,3.6,-0.2,1.7,2.7
0.5,3.5,-0.3,1.6,2.7
1.0,3.4,-0.3,1.5,2.6
1.5,3.3,-0.4,1.4,2.6
2.0,3.0,-0.5,1.3,2.5
2.5,2.8,-0.5,1.1,2.4
3.0,2.7,-0.8,0.9,2.5
3.5,2.5,-1.1,0.7,2.5
4.0,2.5,-1.1,0.7,2.5
4.5,2.4,-1.1,0.7,2.4
5.0,2.3,-1.0,0.6,2.4
5.5,2.3,-1.0,0.6,2.3
6.0,2.0,-1.0,0.5,2.1
6.5,1.8,-1.0,0.4,1.9
7.0,1.7,-0.8,0.4,1.8
7.5,1.7,-0.6,0.5,1.6
8.0,1.8,-0.4,0.7,1.6
8.5,1.8,-0.3,0.8,1.5
9.0,1.9,-0.2,0.9,1.5
9.5,1.9,-0.1,0.9,1.4
10.0,3.8,-0.0,1.9,2.7
10.5,6.9,3.3,5.1,2.5
11.0,14.1,6.1,10.1,5.6
11.5,24.6,16.2,20.4,6.0
12.0,27.8,24.8,26.3,2.1
12.5,45.1,44.2,44.6,0.7
13.0,59.1,58.7,58.9,0.3
13.5,71.1,81.5,76.3,7.4
14.0,86.0,99.2,92.6,9.3
14.5,101.0,112.4,106.7,8.1
15.0,122.2,132.2,127.2,7.1
15.5,133.1,148.8,141.0,11.1
16.0,150.6,163.0,156.8,8.7
16.5,165.3,176.9,171.1,8.2
17.0,176.8,190.0,183.4,9.3
17.5,186.5,202.6,194.6,11.4
18.0,197.8,215.4,206.6,12.4
18.5,207.1,229.2,218.2,15.6
19.0,215.2,238.1,226.6,16.2
19.5,226.3,233.7,230.0,5.2
20.0,230.2,254.5,242.4,17.1
20.5,234.2,258.7,246.4,17.3
21.0,238.8,265.7,252.2,19.1
21.5,240.6,278.2,259.4,26.6
22.0,242.4,274.1,258.2,22.4
22.5,248.4,282.3,265.4,24.0
23.0,250.4,286.8,268.6,25.8
23.5,246.3,286.2,266.3,28.2
24.0,254.4,284.3,269.4,21.1
24.5,256.2,293.7,275.0,26.5
25.0,260.4,298.9,279.6,27.3
25.5,262.6,299.2,280.9,25.9
26.0,261.9,301.0,281.5,27.6
26.5,263.8,294.3,279.0,21.5
27.0,264.3,299.5,281.9,24.9
27.5,262.5,302.7,282.6,28.4
28.0,260.9,307.2,284.1,32.7
28.5,266.9,308.9,287.9,29.7
29.0,267.4,311.0,289.2,30.8
29.5,266.7,308.7,287.7,29.7
30.0,270.6,309.7,290.1,27.7
30.5,264.5,316.4,290.4,36.7
31.0,273.1,315.7,294.4,30.1
31.5,275.0,317.0,296.0,29.8
32.0,270.3,315.9,293.1,32.3
32.5,270.6,321.8,296.2,36.2
33.0,271.0,321.8,296.4,35.9
33.5,269.6,312.9,291.3,30.6
34.0,270.7,327.2,299.0,39.9
34.5,268.7,317.0,292.8,34.2
35.0,271.3,313.3,292.3,29.7
35.5,273.1,317.9,295.5,31.7
36.0,274.6,323.5,299.0,34.5
36.5,276.9,319.5,298.2,30.1
37.0,280.1,317.2,298.7,26.2
37.5,278.2,321.4,299.8,30.6
38.0,278.2,314.3,296.3,25.5
38.5,276.1,321.8,299.0,32.4
39.0,277.4,318.1,297.8,28.8
39.5,278.7,327.6,303.1,34.5
40.0,284.7,326.0,305.3,29.2
40.5,284.9,324.0,304.5,27.6
41.0,287.6,322.2,304.9,24.4
41.5,280.3,330.5,305.4,35.5
42.0,283.4,318.7,301.0,25.0
42.5,285.9,323.0,304.5,26.3
43.0,278.6,330.4,304.5,36.6
43.5,280.8,320.9,300.9,28.4
44.0,279.7,317.8,298.7,27.0
44.5,277.7,320.0,298.8,30.0
45.0,276.8,318.3,297.5,29.3
45.5,278.5,317.2,297.9,27.4
46.0,281.8,325.9,303.8,31.2
46.5,275.8,322.8,299.3,33.2
47.0,276.0,326.0,301.0,35.4
47.5,283.9,334.9,309.4,36.0
48.0,288.3,336.5,312.4,34.1
48.5,289.2,335.5,312.4,32.7
49.0,287.3,335.5,311.4,34.1
49.5,290.0,341.3,315.6,36.2
50.0,287.7,340.0,313.8,37.0
50.5,290.1,337.3,313.7,33.4
51.0,290.2,343.3,316.7,37.6
51.5,281.1,349.0,315.1,48.0
52.0,280.1,349.7,314.9,49.2
52.5,274.8,337.8,306.3,44.5
53.0,284.5,352.4,318.4,48.1
53.5,288.5,359.3,323.9,50.1
54.0,274.2,361.4,317.8,61.7
54.5,280.8,362.5,321.7,57.8
55.0,280.4,361.2,320.8,57.1
55.5,278.8,364.9,321.8,60.9
56.0,271.6,375.9,323.7,73.7
56.5,281.6,372.5,327.1,64.3
57.0,278.0,377.0,327.5,70.0
57.5,277.5,372.1,324.8,66.9
58.0,282.1,368.1,325.1,60.8
58.5,281.8,364.2,323.0,58.3
59.0,282.8,371.1,327.0,62.5
59.5,274.1,365.8,320.0,64.8
60.0,280.2,350.3,315.2,49.6
60.5,286.0,353.8,319.9,48.0
61.0,275.1,354.1,314.6,55.8
61.5,278.7,341.9,310.3,44.7
62.0,277.2,348.2,312.7,50.2
62.5,283.4,341.0,312.2,40.7
63.0,278.1,352.6,315.4,52.7
63.5,283.0,338.4,310.7,39.2
64.0,287.4,342.9,315.1,39.2
64.5,283.5,339.0,311.3,39.3
65.0,279.5,347.8,313.6,48.3
65.5,282.0,343.0,312.5,43.1
66.0,283.5,341.9,312.7,41.3
66.5,279.7,346.2,313.0,47.0
67.0,285.1,348.2,316.6,44.6
67.5,290.1,353.8,321.9,45.0
68.0,278.8,354.3,316.6,53.3
68.5,284.8,358.9,321.9,52.4
69.0,287.2,357.8,322.5,49.9
69.5,281.5,363.8,322.7,58.1
70.0,286.1,358.6,322.4,51.3
70.5,289.6,361.0,325.3,50.5
71.0,281.8,367.5,324.6,60.6
71.5,282.5,362.4,322.5,56.5
72.0,291.6,363.4,327.5,50.7
72.5,291.2,366.3,328.8,53.1
73.0,294.5,361.4,327.9,47.3
73.5,289.7,365.3,327.5,53.5
74.0,293.3,357.7,325.5,45.6
74.5,288.7,359.6,324.2,50.2
75.0,292.0,355.3,323.7,44.7
75.5,288.6,354.7,321.6,46.7
76.0,288.2,349.7,318.9,43.5
76.5,288.7,349.4,319.0,42.9
77.0,293.7,340.9,317.3,33.3
77.5,284.6,340.1,312.4,39.3
78.0,284.2,347.1,315.7,44.5
78.5,287.6,333.0,310.3,32.0
79.0,283.3,331.3,307.3,33.9
79.5,282.7,329.2,305.9,32.8
80.0,284.1,324.7,304.4,28.7
80.5,279.7,318.6,299.1,27.5
81.0,282.5,305.6,294.1,16.3
81.5,281.3,299.8,290.6,13.1
82.0,279.7,294.8,287.3,10.7
82.5,280.0,298.3,289.1,12.9
83.0,279.7,283.5,281.6,2.7
83.5,278.4,281.8,280.1,2.4
84.0,273.4,283.1,278.2,6.9
84.5,275.6,276.7,276.1,0.8
85.0,271.6,278.3,275.0,4.8
85.5,269.0,271.9,270.4,2.0
86.0,274.2,270.9,272.5,2.3
86.5,272.5,271.5,272.0,0.7
87.0,272.8,257.8,265.3,10.6
87.5,276.6,255.2,265.9,15.2
88.0,270.0,249.0,259.5,14.8
88.5,271.9,240.1,256.0,22.5
89.0,272.0,234.0,253.0,26.9
89.5,267.4,221.9,244.7,32.2
90.0,267.9,216.2,242.0,36.6
90.5,264.4,,264.4,
91.0,268.5,,268.5,
91.25,264.5,,264.5,