Folder: fsri_materials_database/01_Data/Polyisocyanurate_Spray_Foam_Insulation/Cone (part 2)

File: Polyisocyanurate_Spray_Foam_Insulation_Cone_HF50Scan_241113_R1.csv
Names,Time,Stack TC,Smoke TC,Exh Press,Smoke Comp,Smoke Meas,CO Meter,CO2 Meter,O2 Meter,Sample Mass,Ext Coeff,Start Test,Flame Verif
Chan Gain,,500,500,1,1,1,1,1,1,1,1,1.0,1.0
Offset,,0,0,0.138019,0,0,0,0,0,0,0,0.0,0.0
Gain,,1,1,25.011,12.0976,1865.13,1,1,1,1.00093,0.957506,1.0,1.0
Units,sec,C,C,Pa,%,%,%,%,%,g,/m,,
Baseline,,38.6546,40.5738,165.204,98.2269,94.0562,0.00047576,0.0409076,20.9505,-442.642,0.365016,,
8,1.75,37.1205,39.4139,154.659,98.1371,72.1167,0.000565136,0.0426031,20.952,47.2941,2.58762,0.0,1.0
16,3.75,39.0617,42.4821,143.786,98.1401,54.7563,0.000523894,0.0428167,20.95,46.9038,4.90094,0.0,1.0
24,5.75,42.7984,47.7001,138.224,98.1604,47.7552,0.000305275,0.043083,20.9475,46.4534,6.05172,0.0,1.0
32,7.75,45.6191,51.9417,141.448,98.1379,49.9751,0.000240383,0.0434738,20.9457,46.033,5.66817,0.0,1.0
40,9.75,48.9482,57.1756,134.138,98.1567,48.4952,0.0007414,0.0504119,20.9449,45.4925,5.92226,0.0,1.0
48,11.75,52.4863,62.1917,135.701,98.1416,40.3557,0.00338194,0.118594,20.9384,45.0921,7.46415,0.0,1.0
56,13.75,54.8892,66.0478,132.607,98.1515,44.397,0.0107473,0.260357,20.8504,44.5816,6.6634,0.0,1.0
64,15.75,57.8364,70.0033,130.742,98.1678,44.2832,0.0226061,0.394663,20.6681,44.1112,6.68636,0.0,0.0
72,17.75,60.8683,74.1703,136.119,98.1526,43.1448,0.0349318,0.51311,20.4729,43.6607,6.9038,0.0,0.0
80,19.75,62.6721,76.8451,132.035,98.1567,42.4618,0.0447672,0.596833,20.2722,43.2303,7.03818,0.0,0.0
88,21.75,64.3769,79.0185,128.882,98.1678,45.4785,0.0522928,0.652064,20.1369,42.7699,6.46265,0.0,0.0
96,23.75,66.0971,81.2294,138.973,98.1818,38.3067,0.0578709,0.687953,20.0437,42.2594,7.90528,0.0,0.0
104,25.75,67.6635,83.5409,137.566,98.1752,40.9249,0.0614135,0.706786,19.9824,41.8691,7.34939,0.0,0.0
112,27.75,68.8352,84.7166,131.455,98.1969,40.4696,0.0635067,0.712491,19.9525,41.3686,7.44523,0.0,0.0
120,29.75,70.1768,85.9243,140.857,98.1888,41.3234,0.0649975,0.717254,19.9383,40.9582,7.26918,0.0,0.0
128,31.75,70.7669,86.8937,133.135,98.1899,38.6482,0.0658121,0.717143,19.9324,40.5078,7.83143,0.0,0.0
136,33.75,71.5378,88.2517,130.546,98.2102,37.2821,0.0660506,0.714321,19.9312,40.0574,8.13541,0.0,0.0
144,35.75,73.0671,89.3951,137.874,98.1873,41.1526,0.0658148,0.706731,19.9317,39.5569,7.30384,0.0,0.0
152,37.75,73.7719,90.6981,127.487,98.2158,38.762,0.0651223,0.695193,19.9389,39.0765,7.80893,0.0,0.0
160,39.75,75.0376,91.5628,123.693,98.2088,38.4774,0.064319,0.686758,19.9541,38.586,7.87023,0.0,0.0
168,41.75,76.5217,93.7753,134.809,98.2342,36.9406,0.0639733,0.683646,19.9649,38.1256,8.21476,0.0,0.0
176,43.75,76.6732,93.608,149.937,98.2409,35.0053,0.064233,0.687595,19.9708,37.6652,8.66729,0.0,0.0
184,45.75,77.148,93.5785,135.085,98.2305,28.175,0.0648787,0.698573,19.9654,37.2848,10.4896,0.0,0.0
192,47.75,77.2925,93.8531,137.757,98.2324,32.1594,0.0654175,0.710422,19.9493,36.9145,9.37879,0.0,0.0
200,49.75,77.1765,93.3181,141.287,98.2505,40.3557,0.0658841,0.720756,19.9374,36.6442,7.47347,0.0,0.0
208,51.75,76.0831,92.662,142.969,98.2394,51.9104,0.0652589,0.709674,19.931,36.424,5.35774,0.0,0.0
216,53.75,75.5038,90.5947,143.867,98.2409,52.5934,0.0630549,0.68291,19.9341,36.2538,5.24807,0.0,0.0
224,55.75,74.0609,88.622,148.548,98.252,59.7083,0.0603751,0.661134,19.9696,36.1537,4.18333,0.0,0.0
232,57.75,73.0109,86.3092,149.288,98.2538,67.677,0.0569301,0.630407,19.9894,36.0837,3.13128,0.0,0.0
240,59.75,71.0681,84.1156,153.85,98.2209,74.9626,0.0513326,0.578134,20.013,36.0136,2.2697,0.0,0.0
248,61.75,69.7589,81.3229,158.265,98.2276,74.6781,0.0437377,0.513748,20.0961,35.9636,2.30222,0.0,0.0
256,63.75,68.0706,78.8031,152.233,98.2276,80.3131,0.035208,0.448498,20.1969,35.9536,1.69121,0.0,0.0
264,65.75,66.8157,76.4742,163.598,98.1988,79.9146,0.0269099,0.386813,20.2989,35.9435,1.73052,0.0,0.0
272,67.75,65.2561,73.9191,164.159,98.2261,81.9068,0.0201385,0.325311,20.3991,35.9335,1.52605,0.0,0.0
280,69.75,63.6776,72.2915,163.501,98.2036,80.6546,0.015174,0.271575,20.4923,35.9335,1.65352,0.0,0.0
288,71.75,60.5567,68.8035,162.653,98.1966,81.9068,0.010985,0.226987,20.5796,35.9536,1.52352,0.0,0.0
296,73.75,59.1741,66.2517,157.775,98.191,82.0776,0.00813249,0.190077,20.6429,35.9435,1.50555,0.0,0.0
304,75.75,58.4274,64.8638,158.751,98.1884,82.0206,0.00619561,0.157749,20.7077,35.9135,1.51116,0.0,0.0
312,77.75,57.805,63.6895,159.655,98.1549,80.8253,0.00523025,0.132113,20.7634,35.9335,1.63159,0.0,0.0
320,79.75,57.1585,62.4189,159.501,98.1279,82.0776,0.00495567,0.108423,20.804,35.9135,1.50015,0.0,0.0
328,81.75,56.3191,61.16,158.101,98.1157,81.5653,0.00500938,0.0877784,20.8455,35.8935,1.5517,0.0,0.0
336,83.75,55.1345,59.6964,156.73,98.0917,84.582,0.0052173,0.0736204,20.8781,35.9035,1.2446,0.0,0.0
344,85.75,54.8304,58.8879,161.061,98.0415,84.9235,0.00559063,0.064188,20.8993,35.9135,1.20646,0.0,0.0
352,87.75,53.5608,57.5231,162.429,98.0308,87.9972,0.00595377,0.058639,20.9138,35.9035,0.90692,0.0,0.0
360,89.75,53.2794,56.9612,164.089,98.0016,85.2081,0.00623212,0.0554822,20.9217,35.9035,1.17494,0.0,0.0
368,91.75,52.6468,56.1294,159.741,97.9677,84.1836,0.00650965,0.0538501,20.925,35.8835,1.27363,0.0,0.0
376,93.75,51.8997,55.0236,161.357,97.933,85.1512,0.00690212,0.0526741,20.9277,35.8835,1.17466,0.0,0.0
384,95.75,51.9485,54.4736,159.332,97.9045,83.6144,0.00730788,0.0518722,20.9289,35.8735,1.3252,0.0,0.0
392,97.75,51.1603,53.6737,159,97.8621,85.2081,0.00773039,0.0512531,20.93,35.8735,1.16297,0.0,0.0
400,99.75,50.7734,53.3042,166.503,97.8377,83.6144,0.0082449,0.050882,20.9309,35.8635,1.31947,0.0,0.0
408,101.75,50.3768,53.4827,161.583,97.7953,84.4682,0.00872457,0.0509657,20.9313,35.8435,1.23049,0.0,0.0
416,103.75,50.2312,52.4507,155.221,97.7591,83.7851,0.00932781,0.0515233,20.9312,35.8334,1.29558,0.0,0.0
424,105.75,49.8385,52.2399,161.189,97.7362,86.5173,0.0100262,0.0522637,20.9301,35.8435,1.02409,0.0,0.0
432,107.75,49.4647,51.4402,158.33,97.7185,86.005,0.0107172,0.0532125,20.9296,35.8334,1.07245,0.0,0.0
440,109.75,49.1061,51.4672,162.076,97.6635,87.6556,0.0110136,0.055005,20.9283,35.7934,0.908047,0.0,0.0
448,111.75,48.8168,50.7036,162.297,97.6631,87.5418,0.0108754,0.0573146,20.9266,35.7734,0.918931,0.0,0.0
456,113.75,48.434,50.1835,159.351,97.6214,87.4849,0.0101872,0.0594892,20.9243,35.7634,0.920805,0.0,0.0
464,115.75,48.987,50.214,160.672,97.5952,88.0541,0.00960973,0.0611136,20.9231,35.7534,0.86408,0.0,0.0
472,117.75,48.8356,50.1543,160.532,97.6258,87.8833,0.00928787,0.0623365,20.9209,35.7434,0.883021,0.0,0.0
480,119.75,48.3577,49.386,159.003,97.6963,86.5742,0.00926094,0.0634401,20.9191,35.7434,1.01514,0.0,0.0
488,121.75,48.307,49.5304,157.833,97.7425,86.2327,0.00930219,0.0643693,20.9182,35.7133,1.05231,0.0,0.0
496,123.75,47.874,49.674,162.049,97.7997,85.8911,0.00923533,0.0650802,20.9178,35.7033,1.09055,0.0,0.0
504,125.75,48.1635,49.2249,162.055,97.8551,88.794,0.00913766,0.0654979,20.9164,35.6833,0.816133,0.0,0.0
512,127.75,48.2004,49.7764,158.23,97.8979,89.7617,0.00907085,0.0658684,20.9157,35.6833,0.728773,0.0,0.0
520,129.75,48.3572,49.327,158.397,97.94,88.3387,0.00896109,0.0659909,20.9154,35.6633,0.866602,0.0,0.0
528,131.75,47.4869,49.1029,167.687,97.9525,88.9079,0.00888334,0.0661425,20.9152,35.6533,0.813732,0.0,0.0
536,133.75,47.6812,49.1559,159.491,97.9799,90.3878,0.00893733,0.0670334,20.9139,35.6333,0.677419,0.0,0.0
544,135.75,47.4773,48.6866,165.017,98.0168,88.111,0.00918817,0.0677692,20.9133,35.6333,0.894859,0.0,0.0
552,137.75,47.0226,49.192,162.363,98.0448,88.111,0.00939251,0.0680734,20.913,35.6132,0.897264,0.0,0.0
560,139.75,47.8032,48.5079,158.584,98.0489,89.7047,0.00937183,0.0679015,20.9129,35.5732,0.747045,0.0,0.0
568,141.75,47.0677,48.8934,159.255,98.0976,88.6233,0.00911945,0.0675755,20.9142,35.5832,0.853093,0.0,0.0
576,143.75,47.5067,48.6953,163.143,98.1139,87.3141,0.00889187,0.0676276,20.9147,35.5632,0.979483,0.0,0.0
584,145.75,47.7903,49.0552,164.562,98.1165,89.1925,0.00884289,0.0679661,20.9147,35.5732,0.800934,0.0,0.0
592,147.75,47.439,48.7133,162.92,98.122,88.5663,0.00894973,0.0681066,20.9142,35.6032,0.860576,0.0,0.0
600,149.75,46.8481,48.5843,161.349,98.119,89.7047,0.0090219,0.0676485,20.914,35.5732,0.753053,0.0,0.0
608,151.75,47.329,48.701,162.015,98.1172,88.4525,0.00904388,0.0676839,20.9139,35.5232,0.870968,0.0,0.0
616,153.75,47.2484,48.7108,160.113,98.1201,88.2248,0.00910103,0.0677252,20.9139,35.5131,0.892868,0.0,0.0
624,155.75,47.4643,49.1942,158.825,98.101,87.5987,0.00915496,0.0677601,20.9138,35.5131,0.951044,0.0,0.0
632,157.75,47.4053,49.5602,164.111,98.0947,87.8264,0.0092017,0.0679252,20.9138,35.4731,0.928705,0.0,0.0
640,159.75,47.5355,49.0446,167.28,98.1002,88.7371,0.00915769,0.0682616,20.9138,35.4631,0.842533,0.0,0.0
648,161.75,47.5778,48.9457,157.303,98.081,90.5585,0.00902334,0.0682889,20.9138,35.4531,0.670233,0.0,0.0
656,163.75,47.4144,48.8172,162.366,98.0607,91.3554,0.00889313,0.0681619,20.9138,35.4531,0.594909,0.0,0.0
664,165.75,47.3131,48.913,160.642,98.0674,88.6233,0.00873862,0.068205,20.9138,35.4231,0.850501,0.0,0.0
672,167.75,47.2107,49.1217,163.1,98.0537,88.0541,0.00873411,0.0682202,20.9135,35.383,0.90345,0.0,0.0
680,169.75,47.3521,49.2179,161.781,98.0323,89.0786,0.00894165,0.0683261,20.9139,35.383,0.804452,0.0,0.0
688,171.75,47.0613,48.7533,161.644,97.9836,92.323,0.00918084,0.0686521,20.9133,35.383,0.499802,0.0,0.0
696,173.75,46.9621,49.1171,160.709,97.9802,88.9648,0.0092417,0.0686992,20.9131,35.363,0.810731,0.0,0.0
704,175.75,47.5611,48.8708,160.974,97.9581,87.4849,0.00914851,0.0686617,20.9127,35.353,0.949724,0.0,0.0
712,177.75,47.9916,48.5013,159.799,97.9249,88.5663,0.00905852,0.0688273,20.9123,35.343,0.843684,0.0,0.0
720,179.75,47.2817,49.0982,160.941,97.8842,88.7371,0.00897055,0.0687137,20.9121,35.313,0.824021,0.0,0.0
728,181.75,47.4595,48.162,159.521,97.868,87.1434,0.00888783,0.068679,20.911,35.3029,0.97485,0.0,0.0
736,183.75,47.2085,48.9514,160.845,97.841,88.1679,0.00883076,0.068537,20.9102,35.3029,0.874363,0.0,0.0
744,185.75,46.847,48.305,159.899,97.7871,88.7371,0.00870767,0.0682427,20.9099,35.2829,0.815685,0.0,0.0
752,187.75,47.2894,48.8114,162.963,97.7491,87.6556,0.00860397,0.0681012,20.9098,35.2729,0.91541,0.0,0.0
760,189.75,47.4017,48.7207,163.838,97.703,87.3141,0.00857837,0.0680323,20.9097,35.2929,0.944232,0.0,0.0

File: Polyisocyanurate_Spray_Foam_Insulation_Cone_HF50Scan_241113_R2.csv
Names,Time,Stack TC,Smoke TC,Exh Press,Smoke Comp,Smoke Meas,CO Meter,CO2 Meter,O2 Meter,Sample Mass,Ext Coeff,Start Test,Flame Verif
Chan Gain,,500,500,1,1,1,1,1,1,1,1,1.0,1.0
Offset,,0,0,0.138019,0,0,0,0,0,0,0,0.0,0.0
Gain,,1,1,25.011,12.3279,2325.04,1,1,1,1.00093,0.957506,1.0,1.0
Units,sec,C,C,Pa,%,%,%,%,%,g,/m,,
Baseline,,43.7479,45.5618,163.103,99.8505,96.3848,0.000253055,0.0406612,20.9539,-443.043,0.297482,,
9,2,40.9648,42.1749,165.902,99.839,89.6158,0.00048033,0.0480861,20.9472,49.246,0.907337,0.0,0.0
18,4.25,41.6413,43.8415,145.759,99.8374,59.8148,0.000465102,0.0480645,20.9459,48.9757,4.30281,0.0,1.0
27,6.5,45.2619,48.9583,139.806,99.8721,57.2604,0.000426555,0.0475233,20.9455,48.5053,4.67229,0.0,1.0
36,8.75,48.5368,53.8779,133.722,99.8788,52.6484,0.000437006,0.0470775,20.9453,47.9948,5.37818,0.0,0.0
45,11,52.3425,59.8003,129.007,99.8397,48.1073,0.00075796,0.0555919,20.9452,47.3542,6.13251,0.0,0.0
54,13.25,56.4949,65.8462,133.522,99.8694,43.5662,0.00424399,0.141706,20.942,46.8037,6.96781,0.0,0.0
63,15.5,60.6533,72.0261,135.388,99.8698,44.7015,0.0113791,0.273084,20.8479,46.1731,6.75177,0.0,0.0
72,17.75,64.4268,77.6142,141.586,99.8822,42.289,0.0265505,0.440305,20.6367,45.5925,7.21879,0.0,0.0
81,20,67.6465,81.6318,135.734,99.8886,42.7147,0.0417896,0.57748,20.3859,45.012,7.1352,0.0,0.0
90,22.25,69.8583,85.3369,128.758,99.9229,42.9276,0.05367,0.681297,20.1764,44.4415,7.09633,0.0,0.0
99,24.5,72.3634,88.2248,131.704,99.9285,40.3023,0.0624317,0.75566,20.0272,43.881,7.62685,0.0,0.0
108,26.75,74.1465,90.8772,129.862,99.9435,44.1338,0.0673509,0.801942,19.9018,43.3004,6.86531,0.0,0.0
117,29,76.492,93.7061,135.879,99.9755,46.2625,0.0695791,0.816936,19.8295,42.7799,6.47236,0.0,0.0
126,31.25,77.8913,95.3271,131.262,99.9823,44.2048,0.0702581,0.81674,19.8008,42.2294,6.85507,0.0,0.0
135,33.5,79.2028,97.1403,131.179,99.9631,41.4375,0.0701422,0.8178,19.7936,41.7289,7.39643,0.0,0.0
144,35.75,80.4471,98.4297,138.857,99.9909,41.1537,0.0699289,0.820648,19.7884,41.1884,7.45649,0.0,0.0
153,38,81.16,99.2783,132.347,100.003,43.85,0.0696999,0.816345,19.7838,40.5979,6.92449,0.0,0.0
162,40.25,81.8168,99.534,127.147,100.004,42.36,0.068998,0.802922,19.7887,40.1174,7.21496,0.0,0.0
171,42.5,82.3883,100.556,132.704,100.006,41.5795,0.0679919,0.793726,19.8053,39.597,7.37135,0.0,0.0
180,44.75,83.1138,100.842,133.674,99.9962,40.0894,0.0671653,0.777594,19.8185,39.1165,7.67702,0.0,0.0
189,47,83.3915,101.186,141.958,100.011,41.1537,0.0665832,0.751629,19.8398,38.5159,7.45817,0.0,0.0
198,49.25,83.5496,101.021,136.463,99.997,40.0184,0.0658576,0.735506,19.8758,38.1056,7.69196,0.0,0.0
207,51.5,83.7607,100.357,134.648,99.9853,46.4044,0.0652937,0.729289,19.8951,37.6551,6.44745,0.0,0.0
216,53.75,83.5698,100.007,137.023,100.02,39.096,0.0646315,0.71782,19.9061,37.1847,7.88972,0.0,0.0
225,56,83.6443,99.1141,140.824,99.9815,45.1272,0.0635181,0.700115,19.9197,36.7843,6.68155,0.0,0.0
234,58.25,82.1367,98.3026,142.663,99.9608,41.4375,0.0619659,0.672744,19.9421,36.404,7.39624,0.0,0.0
243,60.5,82.2594,97.6786,141.507,99.945,43.5662,0.0594153,0.640377,19.9741,36.0637,6.97416,0.0,0.0
252,62.75,81.5393,96.3771,147.498,99.9405,53.0741,0.0565575,0.616506,20.0291,35.7734,5.31572,0.0,0.0
261,65,80.7218,94.8875,145.066,99.8867,53.8546,0.054024,0.594771,20.061,35.4831,5.18858,0.0,0.0
270,67.25,79.1702,92.9798,149.081,99.8608,57.3314,0.050772,0.568061,20.0898,35.2529,4.66094,0.0,0.0
279,69.5,78.5818,91.4425,150.804,99.8435,65.704,0.0466181,0.537041,20.1335,35.0527,3.51458,0.0,0.0
288,71.75,77.354,89.0741,152.025,99.8171,72.3738,0.0424327,0.502835,20.1755,34.9126,2.7003,0.0,0.0
297,74,75.6932,87.2905,159.544,99.7678,78.4049,0.0374127,0.462792,20.2239,34.8325,2.02386,0.0,0.0
306,76.25,74.7453,85.3545,152.868,99.7359,86.4228,0.0323863,0.422148,20.2965,34.7925,1.20338,0.0,0.0
315,78.5,73.5274,82.8552,153.677,99.6749,85.7842,0.0276998,0.383984,20.3559,34.7324,1.26054,0.0,0.0
324,80.75,71.799,81.1082,153.037,99.6253,89.5448,0.0232798,0.346497,20.4059,34.7424,0.895994,0.0,0.0
333,83,70.6582,79.0539,155.676,99.5662,91.1768,0.0179614,0.307678,20.4625,34.7324,0.739316,0.0,0.0
342,85.25,68.7845,76.2258,157.359,99.5109,93.5183,0.0135355,0.267136,20.5259,34.7224,0.521673,0.0,0.0
351,87.5,67.0924,73.9973,157.217,99.4744,91.5316,0.00988123,0.226167,20.5911,34.7324,0.69895,0.0,0.0
360,89.75,65.4877,72.0936,157.73,99.3894,94.0859,0.00729001,0.188636,20.6628,34.7324,0.460584,0.0,0.0
369,92,63.2205,69.0275,158.668,99.3265,94.0859,0.00583168,0.157114,20.7181,34.7524,0.455273,0.0,0.0
378,94.25,60.4424,65.9148,161.339,99.2837,94.5117,0.00529322,0.128753,20.7665,34.7224,0.413725,0.0,0.0
387,96.5,59.8652,64.805,155.477,99.2156,93.5892,0.0055039,0.103857,20.814,34.6924,0.490339,0.0,0.0
396,98.75,59.3804,63.6185,158.668,99.1471,93.8731,0.00586131,0.0851046,20.8516,34.7324,0.459107,0.0,0.0
405,101,58.1199,62.7386,158.476,99.0621,95.0793,0.00606885,0.0724896,20.8766,34.6924,0.344662,0.0,0.0
414,103.25,57.7995,61.221,158.865,98.997,93.944,0.00626805,0.0634736,20.8961,34.7124,0.440036,0.0,0.0
423,105.5,57.1378,60.725,160.938,98.8958,97.3498,0.00655441,0.0587373,20.9111,34.6423,0.132333,0.0,0.0
432,107.75,56.313,59.5641,160.99,98.8217,93.8021,0.00689325,0.0565796,20.9184,34.6824,0.437844,0.0,0.0
441,110,55.6076,58.4486,159.112,98.7513,107,0.00731609,0.0555398,20.9212,34.6623,-0.673792,0.0,0.0
450,112.25,55.0043,57.5492,158.689,98.6539,110.193,0.00764801,0.0550816,20.9237,34.6623,-0.929056,0.0,0.0
459,114.5,54.486,57.5295,155.305,98.5312,108.703,0.00785039,0.0553198,20.9245,34.6423,-0.825153,0.0,0.0
468,116.75,54.2464,56.5939,158.866,98.4496,108.348,0.00806964,0.0558811,20.9244,34.6123,-0.804658,0.0,0.0
477,119,53.7272,56.4091,162.012,98.3751,107.638,0.00828828,0.0565822,20.9236,34.6023,-0.755831,0.0,0.0
486,121.25,53.6884,55.7719,156.268,98.2731,107.284,0.00854883,0.0579178,20.9227,34.6123,-0.736811,0.0,0.0
495,123.5,53.2713,55.214,154.275,98.2129,108.986,0.00885524,0.0594088,20.9211,34.5923,-0.874231,0.0,0.0
504,125.75,52.6009,54.4579,161.085,98.1554,105.439,0.00912967,0.0604373,20.9189,34.6023,-0.601195,0.0,0.0
513,128,53.0938,54.1685,158.152,98.0835,105.013,0.00934016,0.0614697,20.9181,34.5522,-0.573364,0.0,0.0
522,130.25,52.3853,53.7834,162.077,98.0154,106.787,0.00951272,0.0624192,20.917,34.5522,-0.719891,0.0,0.0
531,132.5,52.3931,53.7613,156.846,98.0038,108.49,0.00969505,0.0631636,20.916,34.5222,-0.853773,0.0,0.0
540,134.75,51.669,53.2634,155.872,97.974,106.716,0.00990146,0.0643444,20.9157,34.5022,-0.717854,0.0,0.0
549,137,51.1916,53.1917,161.329,97.9315,106.006,0.0102267,0.0653072,20.9146,34.5022,-0.665468,0.0,0.0
558,139.25,51.3626,52.9323,155.487,97.9236,108.986,0.0104053,0.0658472,20.913,34.5022,-0.899009,0.0,0.0
567,141.5,50.9927,52.7942,155.53,97.947,104.658,0.0103652,0.06631,20.9122,34.4822,-0.556643,0.0,0.0
576,143.75,51.4077,52.7278,156.742,97.962,105.864,0.0102808,0.0666744,20.9119,34.4722,-0.651603,0.0,0.0
585,146,51.058,52.6358,160.754,97.9631,106.716,0.0103996,0.067886,20.9118,34.4421,-0.71879,0.0,0.0
594,148.25,50.8447,52.2478,157.177,98.0034,106.858,0.0105238,0.0688426,20.9089,34.4121,-0.726501,0.0,0.0
603,150.5,51.4315,52.5532,160.066,98.0455,106.645,0.010563,0.0691289,20.9082,34.4021,-0.706143,0.0,0.0
612,152.75,50.842,52.0464,157.288,98.0655,110.122,0.0106806,0.0698603,20.9088,34.4021,-0.973891,0.0,0.0
621,155,51.1552,52.4175,158.468,98.1117,106.716,0.0109212,0.0705147,20.9091,34.3821,-0.706058,0.0,0.0
630,157.25,50.4709,52.0196,161.286,98.1561,107.78,0.0111381,0.0711355,20.9087,34.4021,-0.785612,0.0,0.0
639,159.5,50.8632,52.1155,158.333,98.1911,108.703,0.0112343,0.0717104,20.9081,34.3821,-0.854195,0.0,0.0
648,161.75,50.5696,52.1016,157.237,98.2607,106.716,0.0112334,0.071717,20.9068,34.3521,-0.693313,0.0,0.0
657,164,50.4126,51.0683,156.882,98.3171,106.716,0.0110718,0.0714396,20.9064,34.322,-0.688491,0.0,0.0
666,166.25,50.6891,51.5229,157.778,98.3871,110.476,0.0107634,0.0708579,20.9063,34.292,-0.973402,0.0,0.0
675,168.5,50.4423,51.8524,160.741,98.4357,107.284,0.0106224,0.0705386,20.908,34.282,-0.722932,0.0,0.0
684,170.75,49.8995,51.3504,155.343,98.5094,107.709,0.010691,0.0710619,20.9087,34.292,-0.749906,0.0,0.0
693,173,49.7302,51.3564,161.116,98.5764,106.29,0.0106499,0.0713573,20.908,34.272,-0.632802,0.0,0.0
702,175.25,49.7835,51.3977,160.9,98.6414,107.709,0.0105748,0.0714086,20.9069,34.2219,-0.738654,0.0,0.0
711,177.5,50.153,51.2252,155.366,98.7208,108.703,0.010673,0.0714329,20.9079,34.2119,-0.809005,0.0,0.0
720,179.75,50.0546,51.3559,156.815,98.8013,106.645,0.0108024,0.0718047,20.9083,34.2319,-0.641642,0.0,0.0
729,182,50.0597,50.792,161.813,98.9048,107.213,0.010862,0.0717443,20.9085,34.1919,-0.67744,0.0,0.0
738,184.25,49.9522,50.8478,162.206,98.9695,106.432,0.0108032,0.0715081,20.9085,34.2119,-0.610577,0.0,0.0
747,186.5,49.379,51.1958,158.91,99.047,109.128,0.0106477,0.0713207,20.9085,34.1619,-0.81413,0.0,0.0
756,188.75,49.061,50.8902,160.675,99.1381,112.037,0.010602,0.0712653,20.9081,34.2119,-1.02739,0.0,0.0
765,191,49.2967,50.6735,161.116,99.0696,110.476,0.0106412,0.0712169,20.9079,34.1719,-0.915342,0.0,0.0
774,193.25,49.2283,50.6355,160.068,99.3062,107.993,0.0106741,0.0714065,20.9078,34.1319,-0.704343,0.0,0.0
783,195.5,49.7824,50.7172,155.259,99.3728,110.406,0.0107391,0.071571,20.9077,34.1218,-0.884276,0.0,0.0
792,197.75,49.2102,50.5035,159.442,99.4251,108.135,0.0108247,0.0718696,20.9073,34.0718,-0.705324,0.0,0.0
801,200,48.9726,50.6587,159.389,99.4894,109.199,0.0109117,0.0721513,20.9068,34.0718,-0.782155,0.0,0.0
810,202.25,49.2546,50.6332,161.048,99.547,108.49,0.0109591,0.0727052,20.906,34.0418,-0.722544,0.0,0.0
819,204.5,49.2436,50.6685,154.88,99.5952,107.851,0.0111199,0.0736371,20.9047,34.0418,-0.668896,0.0,0.0
828,206.75,48.9522,49.9656,164.289,99.6497,109.128,0.0112456,0.0741298,20.9038,34.0418,-0.763176,0.0,0.0
837,209,48.9639,50.7022,158.323,99.7065,107.993,0.0111635,0.0739024,20.9034,34.0218,-0.670555,0.0,0.0
840,209.75,49.0222,50.5253,156.589,99.7208,108.348,0.0110573,0.0738213,20.9033,34.0117,-0.696897,0.0,0.0

File: Polyisocyanurate_Spray_Foam_Insulation_Cone_HF75Scalar_241113_R1.csv
LABORATORY,FSRI
TEST IDENT,Polyisocy_HF75_R1
OPERATOR,Marino
MATERIAL,Polyisocyanurate Foam Board Greene County
ORIENTATION,Horizontal
HEAT FLUX,75
SURF AREA,0.01
C FACTOR,0.0398548
SPEC HOLDER DIFF,-566
SPECIMEN MASS,13.09
SCAN TIME,0.25
O2 DELAY TIME,11
CO DELAY TIME,11
CO2 DELAY TIME,8
FLOW FACTOR,1
SCAN COUNT,714
TIME TO IGN,1.25
END OF TEST SCAN,234
END OF TEST TIME,58.5
TEST STATUS,1
PRE TEST CMT,Dimensions: 102.26 x 101.04 x 26.51 mm;
POST TEST CMT,"Sample ignited instantly as shutter opened. Sample popped and shot off flaming pieces of foam. Sample became embrittled. Remains of sample resemble a lattice structure, refer to post test photos"

File: Polyisocyanurate_Spray_Foam_Insulation_Cone_HF75Scalar_241113_R2.csv
LABORATORY,FSRI
TEST IDENT,Polyisocy_HF75_R2
OPERATOR,Marino
MATERIAL,Polyisocyanurate Foam Board Greene County
ORIENTATION,Horizontal
HEAT FLUX,75
SURF AREA,0.01
C FACTOR,0.0398548
SPEC HOLDER DIFF,-566
SPECIMEN MASS,12.42
SCAN TIME,0.25
O2 DELAY TIME,11
CO DELAY TIME,11
CO2 DELAY TIME,8
FLOW FACTOR,1
SCAN COUNT,662
TIME TO IGN,1.25
END OF TEST SCAN,182
END OF TEST TIME,45.5
TEST STATUS,1
PRE TEST CMT,"Dimensions: 101.56 x 101.83 x 26.14 mm;  sample composed of 2 pieces with seam on the right
"
POST TEST CMT,"Sample ignited instantly as shutter opened. Sample popped and shot off flaming pieces of foam. Sample became embrittled. Remains of sample resemble a lattice structure, refer to post test photos"