Folder: fsri_materials_database/01_Data/Polyisocyanurate_Spray_Foam_Insulation/Cone (part 4)

File: Polyisocyanurate_Spray_Foam_Insulation_HRRPUA_50.csv
Time after Ignition,Polyisocyanurate_Spray_Foam_Insulation_R1,Polyisocyanurate_Spray_Foam_Insulation_R2,Mean,Std. Dev.
0.0,-0.8,3.7,1.5,3.2
0.25,-0.8,3.7,1.5,3.2
0.5,-0.8,3.8,1.5,3.2
0.75,-0.5,3.9,1.7,3.1
1.0,-0.3,4.0,1.9,3.1
1.25,-0.1,3.9,1.9,2.9
1.5,0.0,3.9,2.0,2.7
1.75,0.2,3.9,2.0,2.6
2.0,0.4,3.9,2.1,2.5
2.25,0.5,4.0,2.3,2.5
2.5,0.6,3.9,2.3,2.3
2.75,0.8,4.1,2.4,2.3
3.0,0.9,4.0,2.4,2.2
3.25,1.1,4.0,2.5,2.1
3.5,1.3,4.0,2.7,1.9
3.75,1.4,4.1,2.7,1.9
4.0,1.6,4.1,2.8,1.8
4.25,1.7,4.0,2.9,1.6
4.5,1.9,4.0,2.9,1.5
4.75,1.9,4.1,3.0,1.5
5.0,2.0,4.1,3.0,1.4
5.25,2.1,4.0,3.0,1.3
5.5,2.2,4.0,3.1,1.3
5.75,2.3,4.2,3.3,1.3
6.0,2.3,4.0,3.2,1.2
6.25,2.4,4.0,3.2,1.2
6.5,2.4,4.0,3.2,1.1
6.75,2.4,4.1,3.3,1.2
7.0,2.6,4.0,3.3,1.0
7.25,2.6,4.1,3.3,1.1
7.5,2.7,4.0,3.3,1.0
7.75,2.6,4.1,3.3,1.1
8.0,2.6,4.0,3.3,1.0
8.25,2.7,4.0,3.3,0.9
8.5,2.7,3.8,3.3,0.7
8.75,2.8,3.7,3.3,0.7
9.0,2.9,3.5,3.2,0.4
9.25,3.1,3.3,3.2,0.1
9.5,3.1,3.2,3.2,0.1
9.75,5.7,3.1,4.4,1.8
10.0,8.0,3.1,5.6,3.4
10.25,10.0,3.1,6.6,4.9
10.5,12.0,5.5,8.7,4.6
10.75,20.6,7.5,14.0,9.2
11.0,27.4,9.3,18.4,12.8
11.25,35.3,10.9,23.1,17.2
11.5,40.8,20.0,30.4,14.7
11.75,46.1,27.9,37.0,12.9
12.0,51.8,35.1,43.4,11.8
12.25,62.3,41.2,51.7,14.9
12.5,77.2,47.4,62.3,21.1
12.75,86.8,48.9,67.8,26.8
13.0,97.2,62.5,79.9,24.5
13.25,106.7,70.5,88.6,25.6
13.5,115.7,81.3,98.5,24.3
13.75,128.2,90.0,109.1,27.0
14.0,142.8,94.5,118.6,34.2
14.25,154.7,109.6,132.2,31.9
14.5,160.4,123.4,141.9,26.2
14.75,171.3,133.2,152.3,26.9
15.0,192.1,148.3,170.2,30.9
15.25,195.8,158.5,177.1,26.4
15.5,205.4,167.4,186.4,26.9
15.75,219.4,177.3,198.3,29.8
16.0,231.2,196.1,213.7,24.8
16.25,243.9,208.1,226.0,25.4
16.5,248.9,218.2,233.5,21.7
16.75,275.9,233.9,254.9,29.7
17.0,267.3,240.4,253.8,19.0
17.25,285.7,257.6,271.6,19.9
17.5,297.2,264.8,281.0,22.9
17.75,304.9,276.7,290.8,20.0
18.0,306.5,282.0,294.3,17.3
18.25,329.2,297.6,313.4,22.4
18.5,334.4,311.4,322.9,16.2
18.75,340.4,306.3,323.3,24.1
19.0,350.3,325.5,337.9,17.6
19.25,355.1,340.4,347.7,10.4
19.5,362.8,341.0,351.9,15.5
19.75,359.6,340.0,349.8,13.9
20.0,372.4,346.7,359.5,18.1
20.25,375.4,369.8,372.6,4.0
20.5,380.2,384.9,382.5,3.3
20.75,396.4,382.1,389.2,10.1
21.0,398.3,398.7,398.5,0.3
21.25,397.6,408.6,403.1,7.8
21.5,403.2,400.9,402.1,1.6
21.75,414.4,408.4,411.4,4.3
22.0,416.8,407.8,412.3,6.4
22.25,403.8,425.4,414.6,15.3
22.5,416.0,434.6,425.3,13.1
22.75,432.0,439.6,435.8,5.4
23.0,423.6,436.1,429.9,8.8
23.25,424.9,441.7,433.3,11.8
23.5,450.3,447.7,449.0,1.9
23.75,438.6,460.9,449.8,15.8
24.0,441.2,458.1,449.7,12.0
24.25,447.4,465.1,456.2,12.6
24.5,447.4,457.6,452.5,7.2
24.75,450.3,478.8,464.6,20.2
25.0,432.8,486.3,459.5,37.8
25.25,455.2,482.1,468.6,19.0
25.5,440.9,483.4,462.2,30.0
25.75,441.0,474.0,457.5,23.3
26.0,445.3,493.1,469.2,33.8
26.25,463.4,498.5,480.9,24.8
26.5,444.9,476.3,460.6,22.2
26.75,454.7,488.5,471.6,23.9
27.0,460.7,504.6,482.7,31.1
27.25,447.0,483.7,465.3,25.9
27.5,463.5,496.0,479.7,23.0
27.75,462.0,505.2,483.6,30.6
28.0,463.7,506.1,484.9,30.0
28.25,464.5,516.1,490.3,36.5
28.5,460.4,501.2,480.8,28.8
28.75,465.4,493.8,479.6,20.0
29.0,447.7,486.5,467.1,27.5
29.25,456.8,497.8,477.3,29.0
29.5,454.9,499.4,477.2,31.5
29.75,451.3,491.7,471.5,28.6
30.0,468.1,508.0,488.0,28.2
30.25,455.4,487.1,471.2,22.4
30.5,459.0,506.5,482.7,33.6
30.75,452.3,503.1,477.7,36.0
31.0,464.0,498.9,481.4,24.7
31.25,457.6,500.6,479.1,30.4
31.5,471.3,508.5,489.9,26.3
31.75,447.0,514.6,480.8,47.8
32.0,457.8,497.7,477.7,28.2
32.25,465.0,501.5,483.2,25.7
32.5,462.5,500.2,481.3,26.6
32.75,444.5,503.3,473.9,41.6
33.0,442.6,519.0,480.8,54.0
33.25,443.4,505.8,474.6,44.1
33.5,455.1,523.0,489.1,48.0
33.75,458.1,516.0,487.0,41.0
34.0,442.2,508.5,475.4,46.8
34.25,447.0,502.8,474.9,39.5
34.5,470.3,518.4,494.4,34.0
34.75,445.1,503.9,474.5,41.6
35.0,453.9,495.1,474.5,29.1
35.25,446.4,508.1,477.2,43.7
35.5,445.8,525.8,485.8,56.6
35.75,437.0,518.2,477.6,57.4
36.0,446.9,514.2,480.5,47.6
36.25,453.1,529.3,491.2,53.8
36.5,441.7,513.5,477.6,50.8
36.75,437.9,490.5,464.2,37.2
37.0,456.1,513.3,484.7,40.4
37.25,448.5,506.7,477.6,41.2
37.5,433.7,495.6,464.6,43.7
37.75,423.3,505.8,464.6,58.4
38.0,438.3,515.9,477.1,54.9
38.25,428.2,496.7,462.4,48.4
38.5,436.5,500.2,468.3,45.0
38.75,435.0,495.3,465.2,42.7
39.0,443.5,508.9,476.2,46.2
39.25,442.9,497.3,470.1,38.5
39.5,441.1,495.8,468.5,38.7
39.75,436.3,498.8,467.6,44.2
40.0,430.4,498.2,464.3,47.9
40.25,433.0,513.4,473.2,56.9
40.5,432.2,494.7,463.5,44.2
40.75,439.5,506.1,472.8,47.1
41.0,443.7,507.2,475.5,44.9
41.25,450.9,487.8,469.3,26.1
41.5,440.9,487.3,464.1,32.8
41.75,457.3,498.3,477.8,29.0
42.0,432.2,494.5,463.3,44.1
42.25,434.7,501.0,467.8,46.9
42.5,444.3,494.0,469.2,35.1
42.75,433.7,495.9,464.8,44.0
43.0,435.5,479.1,457.3,30.8
43.25,432.9,494.2,463.5,43.3
43.5,435.7,492.2,463.9,39.9
43.75,436.1,484.1,460.1,33.9
44.0,440.3,486.9,463.6,32.9
44.25,439.3,500.0,469.7,42.9
44.5,441.0,487.8,464.4,33.1
44.75,453.7,490.0,471.9,25.6
45.0,446.9,488.4,467.6,29.3
45.25,448.3,473.2,460.8,17.6
45.5,438.6,487.0,462.8,34.2
45.75,447.4,475.3,461.3,19.7
46.0,458.8,471.0,464.9,8.6
46.25,451.7,486.3,469.0,24.5
46.5,451.9,474.6,463.3,16.0
46.75,457.7,480.6,469.1,16.2
47.0,465.0,476.8,470.9,8.3
47.25,457.1,464.3,460.7,5.1
47.5,456.9,470.1,463.5,9.3
47.75,458.4,474.1,466.2,11.0
48.0,465.0,471.2,468.1,4.4
48.25,459.9,480.6,470.3,14.6
48.5,464.8,464.5,464.6,0.2
48.75,462.0,463.1,462.5,0.7
49.0,461.5,471.1,466.3,6.8
49.25,462.4,465.2,463.8,2.0
49.5,472.2,465.4,468.8,4.7
49.75,464.8,461.2,463.0,2.5
50.0,464.1,468.6,466.3,3.2
50.25,470.2,464.8,467.5,3.8
50.5,473.3,469.8,471.6,2.5
50.75,478.5,459.0,468.7,13.8
51.0,473.4,462.5,468.0,7.8
51.25,483.8,474.3,479.0,6.7
51.5,483.2,468.3,475.8,10.5
51.75,465.2,462.4,463.8,1.9
52.0,474.9,462.4,468.6,8.9
52.25,467.0,462.4,464.7,3.2
52.5,466.2,461.2,463.7,3.5
52.75,463.8,460.0,461.9,2.7
53.0,468.6,464.6,466.6,2.8
53.25,463.9,462.8,463.4,0.7
53.5,458.9,457.8,458.4,0.8
53.75,457.5,465.9,461.7,5.9
54.0,460.7,449.8,455.2,7.7
54.25,453.9,464.6,459.2,7.6
54.5,454.9,458.9,456.9,2.9
54.75,448.0,447.5,447.8,0.4
55.0,455.6,457.4,456.5,1.3
55.25,457.6,462.0,459.8,3.1
55.5,456.3,456.9,456.6,0.4
55.75,450.2,447.1,448.6,2.2
56.0,458.3,446.3,452.3,8.4
56.25,451.6,446.5,449.1,3.6
56.5,452.8,446.9,449.8,4.2
56.75,458.5,444.7,451.6,9.8
57.0,450.1,446.0,448.1,2.8
57.25,457.4,441.7,449.5,11.0
57.5,450.0,441.7,445.8,5.9
57.75,447.2,440.8,444.0,4.5
58.0,445.8,439.3,442.5,4.6
58.25,442.1,435.4,438.7,4.8
58.5,435.9,421.4,428.6,10.3
58.75,433.8,434.2,434.0,0.2
59.0,427.3,425.0,426.2,1.7
59.25,424.9,428.9,426.9,2.8
59.5,424.5,419.3,421.9,3.7
59.75,414.8,407.1,411.0,5.4
60.0,402.9,425.7,414.3,16.1
60.25,401.1,420.4,410.7,13.6
60.5,389.9,420.4,405.2,21.6
60.75,389.5,415.4,402.5,18.3
61.0,382.8,414.4,398.6,22.4
61.25,378.7,407.4,393.1,20.3
61.5,369.4,402.0,385.7,23.0
61.75,360.4,404.0,382.2,30.8
62.0,363.2,409.7,386.5,32.9
62.25,359.8,408.3,384.1,34.3
62.5,348.5,404.7,376.6,39.8
62.75,340.7,410.9,375.8,49.6
63.0,334.5,404.3,369.4,49.3
63.25,330.1,412.1,371.1,58.0
63.5,324.7,404.1,364.4,56.1
63.75,324.2,404.0,364.1,56.4
64.0,311.6,403.2,357.4,64.8
64.25,311.5,397.8,354.7,61.0
64.5,302.8,401.7,352.2,69.9
64.75,297.2,393.4,345.3,68.0
65.0,287.6,393.7,340.7,75.1
65.25,287.7,388.4,338.0,71.2
65.5,278.1,391.3,334.7,80.1
65.75,276.0,385.5,330.8,77.4
66.0,268.0,386.5,327.2,83.8
66.25,259.3,386.8,323.1,90.2
66.5,254.5,389.7,322.1,95.6
66.75,249.1,384.2,316.6,95.5
67.0,243.0,381.3,312.2,97.8
67.25,238.8,375.4,307.1,96.6
67.5,233.1,374.8,304.0,100.2
67.75,229.8,373.6,301.7,101.7
68.0,223.4,369.8,296.6,103.5

File: Polyisocyanurate_Spray_Foam_Insulation_HRRPUA_75.csv
Time after Ignition,Polyisocyanurate_Spray_Foam_Insulation_R1,Polyisocyanurate_Spray_Foam_Insulation_R2,Mean,Std. Dev.
0.0,-1.4,3.2,0.9,3.3
0.25,-1.4,3.2,0.9,3.2
0.5,-1.4,2.9,0.8,3.1
0.75,-1.4,3.0,0.8,3.1
1.0,-1.3,2.9,0.8,2.9
1.25,-1.3,2.7,0.7,2.8
1.5,-1.3,2.7,0.7,2.8
1.75,-1.3,2.6,0.6,2.8
2.0,-1.3,2.6,0.7,2.8
2.25,-1.3,2.5,0.6,2.7
2.5,-1.3,2.4,0.6,2.7
2.75,-1.2,2.5,0.6,2.7
3.0,-1.2,2.5,0.6,2.6
3.25,-1.2,2.4,0.6,2.5
3.5,-1.3,2.4,0.6,2.6
3.75,-1.3,2.5,0.6,2.7
4.0,-1.2,2.6,0.7,2.7
4.25,-1.2,2.6,0.7,2.7
4.5,-1.3,2.7,0.7,2.8
4.75,-1.2,2.8,0.8,2.9
5.0,-1.1,2.9,0.9,2.9
5.25,-1.0,2.9,0.9,2.7
5.5,-1.0,2.8,0.9,2.7
5.75,-0.8,2.8,1.0,2.6
6.0,-0.8,3.1,1.1,2.7
6.25,-0.8,3.0,1.1,2.7
6.5,-0.6,3.1,1.3,2.6
6.75,-0.4,3.4,1.5,2.7
7.0,-0.3,3.4,1.5,2.6
7.25,-0.2,3.4,1.6,2.6
7.5,-0.1,3.6,1.7,2.6
7.75,-0.0,3.5,1.7,2.5
8.0,0.1,3.6,1.9,2.5
8.25,0.1,3.7,1.9,2.5
8.5,0.4,3.9,2.2,2.5
8.75,0.6,4.2,2.4,2.5
9.0,0.9,4.1,2.5,2.3
9.25,1.0,4.2,2.6,2.2
9.5,1.2,5.4,3.3,3.0
9.75,6.4,6.3,6.4,0.1
10.0,11.5,7.1,9.3,3.1
10.25,15.9,8.0,12.0,5.6
10.5,19.7,9.0,14.3,7.5
10.75,34.0,15.9,24.9,12.8
11.0,49.6,21.6,35.6,19.8
11.25,61.6,27.6,44.6,24.0
11.5,78.0,32.5,55.2,32.2
11.75,101.1,47.2,74.1,38.1
12.0,117.5,59.5,88.5,41.0
12.25,137.9,74.5,106.2,44.8
12.5,146.8,89.5,118.1,40.5
12.75,158.4,97.3,127.9,43.2
13.0,183.7,105.9,144.8,55.1
13.25,205.6,116.2,160.9,63.2
13.5,224.9,139.3,182.1,60.5
13.75,246.8,158.8,202.8,62.2
14.0,261.2,180.3,220.8,57.2
14.25,272.8,203.5,238.1,49.0
14.5,299.1,223.7,261.4,53.3
14.75,328.9,257.5,293.2,50.5
15.0,332.6,281.8,307.2,36.0
15.25,357.2,306.0,331.6,36.3
15.5,389.1,315.1,352.1,52.3
15.75,380.8,359.3,370.0,15.2
16.0,421.5,379.7,400.6,29.5
16.25,419.1,397.2,408.2,15.4
16.5,444.3,395.4,419.8,34.6
16.75,435.5,424.7,430.1,7.7
17.0,475.2,435.5,455.4,28.1
17.25,474.6,472.8,473.7,1.2
17.5,495.7,500.9,498.3,3.6
17.75,489.3,503.8,496.5,10.2
18.0,518.8,538.9,528.8,14.2
18.25,533.9,544.0,539.0,7.1
18.5,524.5,550.1,537.3,18.1
18.75,561.7,561.9,561.8,0.1
19.0,561.2,551.2,556.2,7.1
19.25,582.7,576.8,579.8,4.2
19.5,575.0,593.7,584.3,13.2
19.75,591.4,593.7,592.5,1.7
20.0,562.7,613.6,588.1,36.0
20.25,595.9,627.2,611.5,22.1
20.5,613.5,629.0,621.2,11.0
20.75,625.0,618.6,621.8,4.5
21.0,615.5,659.3,637.4,31.0
21.25,623.3,630.8,627.0,5.3
21.5,619.6,621.6,620.6,1.3
21.75,658.8,666.9,662.8,5.7
22.0,620.1,662.9,641.5,30.2
22.25,650.7,630.6,640.6,14.2
22.5,614.1,642.6,628.3,20.2
22.75,625.4,661.8,643.6,25.7
23.0,626.4,679.3,652.9,37.4
23.25,631.9,673.4,652.7,29.3
23.5,667.2,676.5,671.8,6.6
23.75,642.3,678.9,660.6,25.9
24.0,667.9,679.2,673.5,8.0
24.25,655.6,660.9,658.2,3.7
24.5,659.4,658.5,658.9,0.7
24.75,654.0,674.2,664.1,14.3
25.0,666.1,683.8,674.9,12.5
25.25,642.1,670.8,656.4,20.2
25.5,679.9,690.2,685.1,7.3
25.75,628.6,684.4,656.5,39.5
26.0,666.3,681.3,673.8,10.6
26.25,648.5,654.9,651.7,4.5
26.5,637.1,675.9,656.5,27.4
26.75,649.7,683.6,666.6,24.0
27.0,657.7,654.5,656.1,2.3
27.25,636.9,655.4,646.2,13.1
27.5,638.2,667.0,652.6,20.4
27.75,632.1,686.7,659.4,38.6
28.0,640.0,671.6,655.8,22.3
28.25,632.2,667.2,649.7,24.8
28.5,649.3,673.6,661.5,17.2
28.75,640.0,644.7,642.4,3.3
29.0,656.4,680.0,668.2,16.7
29.25,675.4,645.2,660.3,21.3
29.5,613.8,641.3,627.6,19.5
29.75,638.1,645.0,641.5,4.8
30.0,624.7,669.9,647.3,31.9
30.25,639.4,666.1,652.7,18.9
30.5,623.4,669.3,646.4,32.5
30.75,628.6,642.9,635.8,10.1
31.0,617.6,626.0,621.8,5.9
31.25,636.2,660.6,648.4,17.2
31.5,608.2,642.5,625.3,24.2
31.75,614.1,642.3,628.2,20.0
32.0,644.9,668.5,656.7,16.7
32.25,630.7,656.4,643.5,18.2
32.5,633.2,663.6,648.4,21.5
32.75,646.6,662.3,654.5,11.1
33.0,616.7,664.0,640.4,33.4
33.25,636.8,662.0,649.4,17.8
33.5,659.9,663.1,661.5,2.3
33.75,628.9,679.9,654.4,36.0
34.0,642.1,684.5,663.3,30.0
34.25,634.2,690.2,662.2,39.6
34.5,632.4,693.5,663.0,43.2
34.75,642.9,686.0,664.5,30.5
35.0,643.0,680.1,661.5,26.3
35.25,648.4,686.7,667.5,27.1
35.5,643.7,705.7,674.7,43.8
35.75,658.2,703.4,680.8,31.9
36.0,661.1,704.4,682.7,30.6
36.25,656.6,713.6,685.1,40.3
36.5,665.3,714.5,689.9,34.8
36.75,681.3,720.2,700.8,27.5
37.0,669.1,726.4,697.8,40.5
37.25,669.9,723.0,696.4,37.6
37.5,671.8,723.4,697.6,36.5
37.75,671.8,737.0,704.4,46.2
38.0,665.5,734.9,700.2,49.1
38.25,670.4,727.4,698.9,40.3
38.5,677.6,738.3,708.0,42.9
38.75,684.7,745.9,715.3,43.2
39.0,683.3,741.0,712.1,40.8
39.25,685.6,734.5,710.0,34.5
39.5,693.3,748.5,720.9,39.0
39.75,688.6,761.1,724.9,51.2
40.0,692.2,745.8,719.0,37.9
40.25,690.7,731.6,711.2,29.0
40.5,707.0,746.2,726.6,27.7
40.75,696.3,755.6,726.0,41.9
41.0,692.9,755.6,724.2,44.4
41.25,691.0,757.2,724.1,46.8
41.5,694.1,756.6,725.4,44.2
41.75,705.9,746.8,726.4,28.9
42.0,709.5,740.5,725.0,21.9
42.25,701.7,736.5,719.1,24.6
42.5,710.9,736.6,723.7,18.2
42.75,702.4,731.2,716.8,20.3
43.0,705.8,712.9,709.3,5.1
43.25,689.9,724.5,707.2,24.4
43.5,696.0,692.2,694.1,2.7
43.75,697.5,701.4,699.5,2.8
44.0,686.5,678.6,682.6,5.6
44.25,681.5,653.8,667.7,19.6
44.5,683.6,,683.6,
44.75,675.7,,675.7,
45.0,678.7,,678.7,
45.25,657.1,,657.1,
45.5,649.0,,649.0,
45.75,633.6,,633.6,
46.0,639.2,,639.2,
46.25,633.0,,633.0,
46.5,605.1,,605.1,
46.75,590.9,,590.9,
47.0,585.5,,585.5,
47.25,580.5,,580.5,
47.5,570.2,,570.2,
47.75,553.0,,553.0,
48.0,536.5,,536.5,
48.25,532.0,,532.0,
48.5,516.0,,516.0,
48.75,502.6,,502.6,
49.0,487.9,,487.9,
49.25,475.9,,475.9,
49.5,466.7,,466.7,
49.75,446.3,,446.3,
50.0,442.8,,442.8,
50.25,424.9,,424.9,
50.5,417.8,,417.8,
50.75,405.2,,405.2,
51.0,388.6,,388.6,
51.25,374.4,,374.4,
51.5,362.3,,362.3,
51.75,351.6,,351.6,
52.0,339.0,,339.0,
52.25,325.7,,325.7,
52.5,312.9,,312.9,
52.75,303.9,,303.9,
53.0,292.3,,292.3,
53.25,284.7,,284.7,
53.5,271.4,,271.4,
53.75,262.9,,262.9,
54.0,257.0,,257.0,
54.25,246.1,,246.1,
54.5,241.2,,241.2,
54.75,235.0,,235.0,
55.0,223.5,,223.5,
55.25,221.4,,221.4,
55.5,212.7,,212.7,
55.75,204.8,,204.8,
56.0,197.0,,197.0,
56.25,190.6,,190.6,
56.5,187.0,,187.0,
56.75,177.6,,177.6,
57.0,171.7,,171.7,
57.25,167.9,,167.9,