Folder: fsri_materials_database/01_Data/Polyisocyanurate_Spray_Foam_Insulation/Cone

File: Polyisocyanurate_Spray_Foam_Insulation_Cone_HF25Scalar_241113_R1.csv
LABORATORY,FSRI
TEST IDENT,Polyisocy_HF25_R1
OPERATOR,Marino
MATERIAL,Polyisocyanurate Foam Board Greene County
ORIENTATION,Horizontal
HEAT FLUX,25
SURF AREA,0.01
C FACTOR,0.0398548
SPEC HOLDER DIFF,-566
SPECIMEN MASS,12.94
SCAN TIME,0.25
O2 DELAY TIME,11
CO DELAY TIME,11
CO2 DELAY TIME,8
FLOW FACTOR,1
SCAN COUNT,870
TIME TO IGN,6.25
END OF TEST SCAN,390
END OF TEST TIME,97.5
TEST STATUS,1
PRE TEST CMT,"Dimensions: 101.57 x 100.74 x 26.13 mm; sample composed of 2 pieces with seam on the right
"
POST TEST CMT,Sample lost mass and receded away from the heating element. Sample popped and shot off pieces of foam. Sample became embrittled.

File: Polyisocyanurate_Spray_Foam_Insulation_Cone_HF25Scalar_241113_R2.csv
LABORATORY,FSRI
TEST IDENT,Polyisocy_HF25_R2
OPERATOR,Marino
MATERIAL,Polyisocyanurate Foam Board Greene County
ORIENTATION,Horizontal
HEAT FLUX,25
SURF AREA,0.01
C FACTOR,0.0398548
SPEC HOLDER DIFF,-566
SPECIMEN MASS,14.31
SCAN TIME,0.25
O2 DELAY TIME,11
CO DELAY TIME,11
CO2 DELAY TIME,8
FLOW FACTOR,1
SCAN COUNT,852
TIME TO IGN,3
END OF TEST SCAN,372
END OF TEST TIME,93
TEST STATUS,1
PRE TEST CMT,Dimensions: 101.52 x 101.75 x 26.49 mm; sample composed of 2 pieces with seam on the right
POST TEST CMT,Sample lost mass and receded away from the heating element. Sample popped and shot off pieces of foam. Sample became embrittled

File: Polyisocyanurate_Spray_Foam_Insulation_Cone_HF25Scan_241113_R1.csv
Names,Time,Stack TC,Smoke TC,Exh Press,Smoke Comp,Smoke Meas,CO Meter,CO2 Meter,O2 Meter,Sample Mass,Ext Coeff,Start Test,Flame Verif
Chan Gain,,500,500,1,1,1,1,1,1,1,1,1.0,1.0
Offset,,0,0,0.138019,0,0,0,0,0,0,0,0.0,0.0
Gain,,1,1,25.011,12.0976,1865.13,1,1,1,1.00093,0.957506,1.0,1.0
Units,sec,C,C,Pa,%,%,%,%,%,g,/m,,
Baseline,,33.9747,34.7646,168.557,98.0227,103.939,0.000302438,0.0414252,20.9519,-442.368,-0.491748,,
9,2,33.1875,34.2138,164.965,97.9437,104.276,0.000249859,0.0483722,20.9431,48.1149,-0.526202,0.0,0.0
18,4.25,32.7065,33.6432,161.48,97.8661,101.202,0.000455502,0.047585,20.9443,48.0348,-0.281557,0.0,0.0
27,6.5,33.3377,34.3288,154.267,97.8159,83.2729,0.000536496,0.0466896,20.9451,46.9438,1.35197,0.0,1.0
36,8.75,35.0178,37.1689,152.117,97.7284,67.9047,0.000364771,0.04553,20.9464,47.4843,3.05804,0.0,1.0
45,11,36.7925,40.6584,150.88,97.6465,69.8399,0.000168238,0.0448509,20.9473,47.184,2.81497,0.0,1.0
54,13.25,38.6943,44.4087,154.85,97.5689,72.7997,0.000162759,0.0445986,20.9485,46.8737,2.45968,0.0,0.0
63,15.5,41.3001,46.9848,154.021,97.4597,67.7339,0.000966199,0.0736991,20.9482,46.5234,3.05606,0.0,0.0
72,17.75,43.0125,49.126,158.858,97.381,67.6201,0.00470529,0.169274,20.904,46.1931,3.0634,0.0,0.0
81,20,44.965,51.9228,150.791,97.3301,64.3757,0.0109272,0.257565,20.7915,45.8828,3.47199,0.0,0.0
90,22.25,46.8003,54.0708,146.551,97.2341,66.0832,0.018733,0.333722,20.6437,45.6226,3.24381,0.0,0.0
99,24.5,47.2483,55.6196,144.926,97.144,64.5464,0.0237842,0.370629,20.5403,45.2422,3.43367,0.0,0.0
108,26.75,48.3437,56.9558,151.038,97.0462,65.4571,0.0266642,0.389768,20.4772,44.8819,3.30752,0.0,0.0
117,29,49.7173,58.5126,157.831,96.9786,66.3109,0.0292985,0.406386,20.446,44.5115,3.19283,0.0,0.0
126,31.25,50.4656,59.602,150.746,96.8786,61.1882,0.0316861,0.416394,20.4214,44.2213,3.85945,0.0,0.0
135,33.5,51.1629,60.9971,149.391,96.8095,65.7417,0.0328867,0.41615,20.4076,43.901,3.25058,0.0,0.0
144,35.75,52.1929,61.9557,148.269,96.7398,62.3266,0.033154,0.417414,20.4022,43.5506,3.69258,0.0,0.0
153,38,52.6448,62.6565,153.016,96.6511,63.8634,0.0333215,0.419409,20.4001,43.3004,3.4803,0.0,0.0
162,40.25,53.5316,63.378,150.25,96.6046,60.619,0.0336228,0.426883,20.3965,42.9501,3.91417,0.0,0.0
171,42.5,54.3041,64.3874,142.342,96.5319,56.8054,0.0340291,0.43304,20.3869,42.6098,4.45359,0.0,0.0
180,44.75,54.8823,65.1922,145.354,96.4311,62.2697,0.0346289,0.435669,20.3746,42.2394,3.67342,0.0,0.0
189,47,55.6769,65.8197,145.55,96.4086,66.7094,0.035128,0.432266,20.3693,41.8891,3.093,0.0,0.0
198,49.25,55.9091,66.5907,145.21,96.3576,66.1971,0.0354204,0.433233,20.3681,41.6589,3.1533,0.0,0.0
207,51.5,56.7391,67.1559,148.235,96.3167,64.3757,0.0358363,0.438715,20.3693,41.2785,3.38407,0.0,0.0
216,53.75,57.0097,67.4934,148.898,96.2919,61.3589,0.0364226,0.446536,20.3634,40.9282,3.78503,0.0,0.0
225,56,57.4436,68.017,150.54,96.2587,61.9851,0.0360269,0.4426,20.3552,40.5578,3.69686,0.0,0.0
234,58.25,58.1189,68.9355,143.502,96.2362,63.8634,0.0347975,0.435162,20.3594,40.2676,3.44416,0.0,0.0
243,60.5,58.8167,69.1071,154.462,96.214,63.5219,0.0338949,0.434634,20.3677,39.9573,3.48726,0.0,0.0
252,62.75,59.128,69.0875,150.49,96.1941,58.7976,0.0337371,0.435164,20.3694,39.627,4.13464,0.0,0.0
261,65,59.0556,69.6676,153.712,96.1815,58.2284,0.0337803,0.435556,20.3682,39.2566,4.21525,0.0,0.0
270,67.25,59.2181,70.222,142.447,96.217,48.7798,0.0338824,0.440575,20.3669,38.9363,5.70547,0.0,0.0
279,69.5,59.5563,69.7946,145.849,96.2177,54.6425,0.0339459,0.438925,20.3636,38.586,4.75227,0.0,0.0
288,71.75,60.8318,70.9657,148.15,96.2236,58.6268,0.0338144,0.434919,20.3623,38.3258,4.16164,0.0,0.0
297,74,60.6371,70.8377,153.399,96.2192,58.513,0.0337736,0.437448,20.3621,38.1356,4.17758,0.0,0.0
306,76.25,60.7656,70.549,151.664,96.2583,48.4383,0.0338089,0.441868,20.3609,37.8253,5.76809,0.0,0.0
315,78.5,60.5948,69.952,151.229,96.286,56.7485,0.0334919,0.447564,20.3566,37.5851,4.44059,0.0,0.0
324,80.75,60.4404,69.9742,148.854,96.2871,52.8211,0.0322022,0.440661,20.35,37.3949,5.04307,0.0,0.0
333,83,60.8396,69.935,155.381,96.3359,57.1469,0.0300167,0.422177,20.3547,37.3048,4.38618,0.0,0.0
342,85.25,60.1069,69.1262,154.768,96.3429,59.3099,0.0275718,0.411572,20.3732,37.0446,4.07476,0.0,0.0
351,87.5,59.5946,68.2266,154.589,96.3672,66.0832,0.0258293,0.402533,20.385,36.9245,3.1686,0.0,0.0
360,89.75,58.7556,66.7918,159.564,96.3879,73.3689,0.0241265,0.391048,20.3931,36.8244,2.29197,0.0,0.0
369,92,57.7851,65.4573,160.961,96.4311,86.6311,0.0225133,0.378234,20.404,36.7943,0.900139,0.0,0.0
378,94.25,56.3745,62.7254,159.168,96.4677,91.2416,0.0213904,0.364341,20.4116,36.8344,0.467812,0.0,0.0
387,96.5,54.9043,60.8467,165.486,96.5053,93.063,0.0200454,0.335156,20.4282,36.9145,0.305073,0.0,0.0
396,98.75,52.5235,57.9406,162.611,96.5441,95.2259,0.0178548,0.291402,20.4662,36.8944,0.11547,0.0,0.0
405,101,51.5894,56.4707,159.542,96.5972,95.4536,0.0145341,0.237024,20.5419,36.9345,0.100036,0.0,0.0
414,103.25,50.7782,54.5028,163.912,96.6438,97.9011,0.0112596,0.184904,20.6295,36.9245,-0.108569,0.0,0.0
423,105.5,49.3659,52.9695,169.062,96.6988,94.9982,0.007935,0.139481,20.7116,36.9044,0.149022,0.0,0.0
432,107.75,48.6442,51.4929,166.35,96.7589,94.9982,0.00549668,0.104699,20.7876,36.9145,0.154248,0.0,0.0
441,110,47.5437,50.3293,163.772,96.8003,94.8275,0.00372288,0.0781994,20.8569,36.9044,0.172947,0.0,0.0
450,112.25,46.8189,49.0336,165.346,96.8431,95.5105,0.00275308,0.0624665,20.8963,36.9145,0.11638,0.0,0.0
459,114.5,46.051,48.3095,170.704,96.9015,94.429,0.00207234,0.0537628,20.9202,36.9145,0.217085,0.0,0.0
468,116.75,45.5283,46.9112,168.266,96.9594,95.3397,0.00135394,0.049149,20.9338,36.8844,0.141491,0.0,0.0
477,119,44.6262,46.1505,159.208,96.9949,94.6567,0.000814146,0.046377,20.9409,36.8944,0.20495,0.0,0.0
486,121.25,44.0172,45.7853,169.589,97.0362,95.5674,0.00061181,0.0448299,20.9449,36.9145,0.128106,0.0,0.0
495,123.5,44.0661,44.9362,166.232,97.072,95.7951,0.000656832,0.0437559,20.9485,36.9245,0.11122,0.0,0.0
504,125.75,43.4888,44.5662,165.749,97.1171,95.5105,0.000673952,0.0432102,20.9487,36.9245,0.140106,0.0,0.0
513,128,43.3517,43.707,168.806,97.1643,95.852,0.000580479,0.0427196,20.9484,36.9145,0.114213,0.0,0.0
522,130.25,42.9149,43.5047,166.773,97.2097,95.9659,0.000513231,0.0425754,20.9494,36.9145,0.108168,0.0,0.0
531,132.5,42.5185,43.4714,165.35,97.2684,96.1366,0.000675025,0.0423507,20.9501,36.9145,0.0983068,0.0,0.0
540,134.75,42.0951,42.6853,168.609,97.3013,98.3565,0.000903173,0.0419582,20.9503,36.9145,-0.0905937,0.0,0.0
549,137,41.8852,42.4876,161.834,97.3622,98.9826,0.000903273,0.0419174,20.9509,36.9245,-0.138634,0.0,0.0
558,139.25,41.6312,42.429,166.613,97.3903,96.4781,0.000877209,0.0419212,20.9521,36.9245,0.0790349,0.0,0.0
567,141.5,41.3265,41.6733,171.607,97.4464,99.0395,0.000941983,0.0419267,20.9514,36.9345,-0.136204,0.0,0.0
576,143.75,41.2574,41.6633,166.903,97.4626,97.6734,0.000972788,0.0418611,20.9516,36.9145,-0.0181474,0.0,0.0
585,146,41.1585,41.5402,160.454,97.5206,95.6243,0.000883044,0.0418667,20.9519,36.9044,0.164928,0.0,0.0
594,148.25,41.1156,41.464,164.493,97.5605,96.0228,0.000754613,0.0417881,20.9524,36.9345,0.133437,0.0,0.0
603,150.5,40.9277,41.4928,166.756,97.5852,97.3319,0.000692497,0.0417024,20.9526,36.9345,0.0218291,0.0,0.0
612,152.75,40.4175,40.9101,165.521,97.6269,99.7794,0.000619232,0.041789,20.9526,36.9145,-0.183177,0.0,0.0
621,155,40.4426,40.8686,165.104,97.6587,99.4948,0.000527316,0.0417027,20.9527,36.9145,-0.156455,0.0,0.0
630,157.25,40.693,40.6385,164.304,97.7044,100.064,0.000462302,0.0417398,20.9523,36.9245,-0.200432,0.0,0.0
639,159.5,39.8968,40.5761,163.318,97.7454,100.349,0.000500687,0.0418418,20.952,36.9545,-0.220765,0.0,0.0
648,161.75,39.9834,40.4414,163.462,97.7871,100.292,0.000506454,0.0419409,20.9519,36.9145,-0.212415,0.0,0.0
657,164,40.1816,40.2681,161.734,97.8492,100.804,0.000391376,0.0418952,20.9517,36.9445,-0.249881,0.0,0.0
666,166.25,39.2595,39.8436,163.21,97.8584,99.7794,0.000205229,0.0418768,20.9516,36.9044,-0.163286,0.0,0.0
675,168.5,39.6184,40.0826,166.011,97.8898,100.519,0.000254155,0.0418696,20.9515,36.9245,-0.222649,0.0,0.0
684,170.75,39.477,40.2248,162.952,97.9459,99.6656,0.000476772,0.0420089,20.9515,36.9145,-0.146191,0.0,0.0
693,173,38.3069,38.7483,170.738,97.9581,99.8933,0.000519125,0.0424269,20.9503,36.9245,-0.164311,0.0,0.0
702,175.25,38.4067,38.6722,164.475,97.9876,102.113,0.000530427,0.0426438,20.9496,36.9145,-0.346384,0.0,0.0
711,177.5,38.6661,38.1927,161.247,98.0216,100.292,0.000615349,0.0427391,20.9494,36.9245,-0.192302,0.0,0.0
720,179.75,38.3563,38.6082,165.258,98.0681,100.462,0.000613164,0.042758,20.9493,36.9044,-0.202606,0.0,0.0
729,182,38.6505,38.5109,168.867,98.1039,99.7225,0.000600971,0.0425748,20.9492,36.9245,-0.137447,0.0,0.0
738,184.25,38.0468,38.3488,170.714,98.1213,101.032,0.000483824,0.0424393,20.9492,36.9145,-0.245507,0.0,0.0
747,186.5,38.2267,38.1751,160.132,98.1501,99.9502,0.000255739,0.042313,20.9503,36.9545,-0.152651,0.0,0.0
756,188.75,38.1416,38.4284,167.149,98.1574,100.349,0.000155352,0.0421552,20.9496,36.8944,-0.185435,0.0,0.0
765,191,38.0208,37.538,167.609,98.1504,100.462,0.000203268,0.0420809,20.9494,36.8744,-0.195558,0.0,0.0
774,193.25,37.7057,38.3766,169.324,98.1873,98.9826,0.000201504,0.0421298,20.9493,36.9245,-0.0677514,0.0,0.0
783,195.5,38.0445,38.0628,163.735,98.2076,98.8687,0.000242204,0.0419286,20.9492,36.9145,-0.0563493,0.0,0.0
792,197.75,37.8832,38.4705,164.924,98.2088,99.8364,0.000333726,0.0417771,20.9492,36.9245,-0.138058,0.0,0.0
801,200,37.2824,38.1068,165.749,98.1951,100.69,0.000376432,0.0417285,20.9492,36.9145,-0.21075,0.0,0.0
810,202.25,37.7329,38.2809,165.019,98.1973,100.121,0.000481931,0.0416894,20.9492,36.9044,-0.162945,0.0,0.0
819,204.5,37.6697,38.4332,166.78,98.2095,99.5518,0.000534108,0.0415925,20.9492,36.9145,-0.114017,0.0,0.0
828,206.75,37.6018,38.5428,168.148,98.1899,101.032,0.000484225,0.0415075,20.9492,36.9245,-0.239631,0.0,0.0
837,209,37.525,38.2369,166.103,98.1896,101.089,0.000463233,0.0416251,20.9492,36.9044,-0.244393,0.0,0.0
846,211.25,37.3734,38.5711,164.477,98.1836,100.804,0.000526825,0.0415686,20.9512,36.9145,-0.22122,0.0,0.0
855,213.5,37.2469,37.827,160.964,98.1726,100.747,0.000472805,0.0415819,20.9529,36.9345,-0.217423,0.0,0.0
864,215.75,37.6621,38.0143,166.858,98.1578,100.804,0.00032965,0.0415227,20.9536,36.9145,-0.22343,0.0,0.0
870,217.25,37.5272,37.9675,170.5,98.1549,99.9502,0.000248629,0.0415647,20.9539,36.9145,-0.15224,0.0,0.0

File: Polyisocyanurate_Spray_Foam_Insulation_Cone_HF25Scan_241113_R2.csv
Names,Time,Stack TC,Smoke TC,Exh Press,Smoke Comp,Smoke Meas,CO Meter,CO2 Meter,O2 Meter,Sample Mass,Ext Coeff,Start Test,Flame Verif
Chan Gain,,500,500,1,1,1,1,1,1,1,1,1.0,1.0
Offset,,0,0,0.138019,0,0,0,0,0,0,0,0.0,0.0
Gain,,1,1,25.011,12.0976,1865.13,1,1,1,1.00093,0.957506,1.0,1.0
Units,sec,C,C,Pa,%,%,%,%,%,g,/m,,
Baseline,,29.9937,30.634,168.492,98.1653,114.443,0.000335368,0.0424934,20.9479,-442.256,-1.28832,,
9,2,27.8618,28.6762,169.234,96.3706,111.619,0.00048947,0.0429721,20.9479,48.4752,-1.23373,0.0,0.0
18,4.25,28.757,29.4291,153.024,96.3632,83.3867,0.000521173,0.042722,20.9485,48.1649,1.21482,0.0,1.0
27,6.5,30.5156,33.2381,148.532,96.423,78.4916,0.00065952,0.0430114,20.9499,47.8246,1.72815,0.0,1.0
36,8.75,32.228,35.6345,150.561,96.4588,75.5888,0.000703357,0.0431409,20.9498,47.5143,2.04779,0.0,1.0
45,11,34.6467,39.0985,150.401,96.5253,70.1245,0.000815627,0.0439953,20.9487,47.164,2.68381,0.0,1.0
54,13.25,37.3612,42.3559,153.328,96.6083,68.9292,0.00310783,0.0956049,20.9444,46.7937,2.83543,0.0,0.0
63,15.5,39.7125,45.5147,154.46,96.6977,69.8399,0.00973033,0.203581,20.8612,46.4233,2.73295,0.0,0.0
72,17.75,41.056,47.9379,146.529,96.7996,66.937,0.0193811,0.309662,20.6824,46.043,3.09837,0.0,0.0
81,20,42.7205,50.261,147.188,96.8859,59.936,0.0260958,0.372271,20.5618,45.6126,4.03377,0.0,0.0
90,22.25,44.214,52.2824,147.081,96.9871,62.042,0.0314788,0.418234,20.4554,45.2522,3.75247,0.0,0.0
99,24.5,45.626,53.8962,153.589,97.1241,66.0832,0.0349766,0.44282,20.3901,44.8819,3.2343,0.0,0.0
108,26.75,46.8075,55.5401,142.052,97.2673,66.7094,0.0373707,0.460568,20.3536,44.5416,3.16748,0.0,0.0
117,29,47.9266,57.3412,149.553,97.4224,68.3031,0.0388746,0.471289,20.3335,44.1612,2.98255,0.0,0.0
126,31.25,49.0272,58.4793,142.676,97.5593,61.302,0.0402662,0.480995,20.3129,43.8209,3.90266,0.0,0.0
135,33.5,49.9962,59.7296,148.568,97.6956,60.4482,0.0416643,0.487194,20.2975,43.4005,4.03218,0.0,0.0
144,35.75,50.7229,60.4383,149.483,97.8148,62.1558,0.0427362,0.490047,20.2882,43.0802,3.80845,0.0,0.0
153,38,51.5243,61.6779,139.832,97.9629,58.7407,0.0433258,0.489973,20.2823,42.6298,4.29581,0.0,0.0
162,40.25,52.2025,62.6477,145.324,98.0792,60.9036,0.0433224,0.493447,20.2812,42.1994,4.00206,0.0,0.0
171,42.5,52.8041,63.1521,150.762,98.1737,62.4404,0.0433755,0.497948,20.2762,41.789,3.80084,0.0,0.0
180,44.75,54.0782,64.3476,145.743,98.2756,61.1313,0.0435572,0.496849,20.2706,41.3286,3.98753,0.0,0.0
189,47,54.7909,65.884,139.671,98.3989,62.2697,0.0443429,0.501928,20.2687,40.8681,3.84309,0.0,0.0
198,49.25,56.4084,67.473,146.001,98.4716,65.2295,0.0458524,0.510339,20.2639,40.4678,3.45926,0.0,0.0
207,51.5,56.0998,68.5707,146.795,98.5192,65.2295,0.0474674,0.520152,20.2468,40.1375,3.46332,0.0,0.0
216,53.75,56.5049,68.4663,148.363,98.5931,69.043,0.0489253,0.534817,20.2315,39.7171,2.99238,0.0,0.0
225,56,57.4165,68.2731,146.348,98.6056,62.4404,0.050607,0.555792,20.2084,39.3067,3.83771,0.0,0.0
234,58.25,57.8168,68.7517,144.202,98.5864,52.5365,0.0520636,0.569234,20.1765,38.8463,5.28666,0.0,0.0
243,60.5,58.6715,70.2316,145.866,98.6289,57.09,0.0518334,0.552089,20.1637,38.4959,4.59212,0.0,0.0
252,62.75,59.0871,70.6027,144.53,98.6016,48.4383,0.0498457,0.526629,20.1861,38.1156,5.97011,0.0,0.0
261,65,59.4967,70.3311,148.512,98.6001,49.5197,0.048041,0.518356,20.2203,37.7452,5.78452,0.0,0.0
270,67.25,59.7096,70.7642,145.32,98.5325,49.1782,0.0477889,0.528184,20.2315,37.4349,5.83689,0.0,0.0
279,69.5,59.5312,70.5768,146.751,98.4576,50.4874,0.0479625,0.537501,20.2202,37.1647,5.60983,0.0,0.0
288,71.75,58.7894,70.4712,154.27,98.4491,55.0978,0.0468045,0.536755,20.206,36.8043,4.87513,0.0,0.0
297,74,58.4688,69.6039,156.802,98.4,80.0285,0.0446087,0.53133,20.2015,36.6342,1.73576,0.0,0.0
306,76.25,58.2297,68.3725,146.727,98.3383,59.0253,0.0415115,0.511357,20.2051,36.474,4.28735,0.0,0.0
315,78.5,57.7782,67.1108,155.534,98.2723,76.158,0.038366,0.485947,20.2257,36.3139,2.14122,0.0,0.0
324,80.75,56.4562,65.6992,152.996,98.2143,76.841,0.0349596,0.455953,20.2561,36.2238,2.06127,0.0,0.0
333,83,55.6886,63.9792,161.019,98.1268,90.1601,0.0310721,0.421953,20.3011,36.1337,0.711188,0.0,0.0
342,85.25,54.5059,61.8866,157.894,98.0755,96.9904,0.0270471,0.394448,20.3602,36.1037,0.0934445,0.0,0.0
351,87.5,52.8418,60.2574,157.26,98.0227,102.398,0.0236855,0.368963,20.3936,36.1537,-0.366755,0.0,0.0
360,89.75,50.6784,58.3426,160.632,97.9747,104.902,0.0196164,0.32828,20.429,36.1738,-0.573823,0.0,0.0
369,92,49.291,55.3993,167.315,97.8931,105.642,0.0154653,0.282515,20.4968,36.1838,-0.639858,0.0,0.0
378,94.25,46.3802,51.4683,169.99,97.8514,107.065,0.0118238,0.231823,20.5626,36.2238,-0.755819,0.0,0.0
387,96.5,51.5067,55.7603,161.901,97.827,106.325,0.00894507,0.18207,20.6398,36.2138,-0.699661,0.0,0.0
396,98.75,50.0247,54.8368,165.767,97.9367,109.342,0.00660547,0.136099,20.7202,36.2038,-0.92524,0.0,0.0
405,101,49.2135,52.9238,166.017,98.0382,107.35,0.00487571,0.100585,20.7915,36.2038,-0.762096,0.0,0.0
414,103.25,47.956,51.1518,166.442,98.1999,104.674,0.0032915,0.0755251,20.8521,36.2338,-0.53629,0.0,0.0
423,105.5,47.1486,49.7871,163.819,98.2878,105.756,0.00217464,0.0610357,20.8951,36.2138,-0.615111,0.0,0.0
432,107.75,46.3406,49.1179,166.2,98.359,109.342,0.00147621,0.0531276,20.918,36.2238,-0.889096,0.0,0.0
441,110,45.6779,47.6884,168.306,98.4325,105.87,0.000903026,0.0487433,20.9301,36.2238,-0.611789,0.0,0.0
450,112.25,45.2831,47.2582,163.122,98.4923,108.374,0.000443748,0.0464943,20.9382,36.1938,-0.803063,0.0,0.0
459,114.5,44.7933,46.6157,165.936,98.5196,107.236,0.000248537,0.0450226,20.9421,36.2438,-0.71204,0.0,0.0
468,116.75,43.9745,45.0505,166.974,98.5296,107.065,0.000300843,0.0441098,20.9449,36.1037,-0.697806,0.0,0.0
477,119,43.6206,44.8056,163.415,98.5599,105.471,0.000441404,0.0436325,20.9462,36.2338,-0.569258,0.0,0.0
486,121.25,43.2303,44.3402,164.515,98.5377,108.09,0.00054694,0.0433443,20.9466,36.2238,-0.777106,0.0,0.0
495,123.5,42.2581,44.2283,160.319,98.5174,107.634,0.000565877,0.0430521,20.9467,36.2638,-0.743379,0.0,0.0
504,125.75,42.6665,43.2832,168.129,98.4539,103.707,0.000629771,0.0428149,20.9467,36.2538,-0.436589,0.0,0.0
513,128,42.8397,43.3463,162.954,98.3701,103.821,0.00070348,0.0427871,20.9467,36.2038,-0.452956,0.0,0.0
522,130.25,42.7393,43.5318,160.928,98.273,102.853,0.000672539,0.0429478,20.9467,36.1738,-0.382602,0.0,0.0
531,132.5,42.2693,42.82,167.943,98.1567,103.707,0.000664103,0.0431314,20.9467,36.1838,-0.461981,0.0,0.0
540,134.75,42.051,42.4172,163.63,98.0363,101.999,0.000773693,0.0432151,20.9465,36.2038,-0.332839,0.0,0.0
549,137,41.9719,42.1459,164.666,97.9625,102.568,0.000960093,0.043413,20.9452,36.1738,-0.385907,0.0,0.0
558,139.25,42.0649,41.435,165.921,97.974,101.202,0.00100972,0.0434137,20.9447,36.2438,-0.27231,0.0,0.0
567,141.5,41.029,41.5137,166.074,98.0555,101.601,0.000898038,0.0432027,20.9455,36.2338,-0.298321,0.0,0.0
576,143.75,41.3123,41.3638,162.468,98.0895,102.682,0.000706726,0.0430583,20.9467,36.2238,-0.384342,0.0,0.0
585,146,40.8719,40.7704,166.777,98.1515,103.935,0.00056338,0.0428516,20.9472,36.2238,-0.480843,0.0,0.0
594,148.25,41.3532,41.2139,171.002,98.2047,104.902,0.000517559,0.0427509,20.9474,36.2138,-0.554128,0.0,0.0
603,150.5,41.0535,41.4655,164.246,98.2549,104.105,0.000490113,0.0427824,20.9475,36.2238,-0.485789,0.0,0.0
612,152.75,40.5201,40.7475,169.318,98.3114,105.813,0.000523403,0.0428109,20.948,36.2138,-0.617611,0.0,0.0
621,155,40.6995,40.6707,158.474,98.3531,105.699,0.000550764,0.0429418,20.9483,36.2238,-0.605006,0.0,0.0
630,157.25,40.7891,40.5981,161.007,98.4044,104.504,0.000476108,0.0431299,20.9484,36.2138,-0.505101,0.0,0.0
639,159.5,40.4877,40.7347,157.616,98.4362,104.162,0.000570848,0.0430788,20.9484,36.2138,-0.474899,0.0,0.0
648,161.75,40.1611,40.7537,163.224,98.4727,103.65,0.000791403,0.0429574,20.9484,36.2138,-0.430371,0.0,0.0
657,164,40.0265,40.3691,166.19,98.4701,104.731,0.000868872,0.0428887,20.948,36.2038,-0.517774,0.0,0.0
666,166.25,40.2742,40.5743,161.055,98.4838,103.138,0.00071703,0.0429721,20.9465,36.2038,-0.387812,0.0,0.0
675,168.5,39.8016,40.2687,161.216,98.4964,105.87,0.000548667,0.043026,20.9454,36.2038,-0.606341,0.0,0.0
684,170.75,39.8042,40.0575,164.593,98.4786,103.479,0.000547697,0.0429845,20.9449,36.2038,-0.416019,0.0,0.0
693,173,39.9707,39.9526,160.835,98.4539,104.162,0.000692495,0.0430156,20.9453,36.2438,-0.473387,0.0,0.0
702,175.25,39.5018,39.7824,168.988,98.4059,104.333,0.00071182,0.0430548,20.9468,36.2438,-0.49124,0.0,0.0
711,177.5,39.8436,40.3365,169.756,98.3642,104.447,0.00065038,0.0431054,20.9474,36.2438,-0.503961,0.0,0.0
720,179.75,39.5704,40.4559,164.585,98.2604,105.471,0.000607777,0.0430225,20.9476,36.2338,-0.594813,0.0,0.0
729,182,39.7417,40.1375,163.691,98.2051,104.162,0.000647322,0.0430682,20.9477,36.2138,-0.494642,0.0,0.0
738,184.25,39.4787,39.817,166.071,98.1058,104.219,0.000741134,0.0429429,20.9467,36.2038,-0.507728,0.0,0.0
747,186.5,39.5749,39.5658,164.117,97.9883,104.105,0.000763134,0.0429534,20.9454,36.2138,-0.508606,0.0,0.0
756,188.75,39.2399,39.6025,164.24,97.8909,103.365,0.00070209,0.0428892,20.9454,36.2138,-0.457053,0.0,0.0
765,191,39.1438,39.3805,163.912,97.8027,103.764,0.000525977,0.0427273,20.9464,36.2138,-0.49694,0.0,0.0
774,193.25,39.416,39.3083,164.791,97.7288,102.625,0.000322951,0.0425308,20.9477,36.2338,-0.410629,0.0,0.0
783,195.5,38.9998,39.3807,168.399,97.5841,104.504,0.000207449,0.0425033,20.9482,36.2538,-0.575415,0.0,0.0
792,197.75,38.7499,39.0215,167.679,97.501,102.341,0.000259077,0.0424027,20.9484,36.2238,-0.406903,0.0,0.0
801,200,38.9982,39.2652,167.829,97.3976,104.333,0.000441143,0.0425069,20.9485,36.2138,-0.577741,0.0,0.0
810,202.25,38.9746,39.36,165.925,97.2961,103.195,0.000570766,0.0424317,20.9486,36.2038,-0.494353,0.0,0.0
819,204.5,38.5149,38.5149,166.603,97.1647,103.195,0.000638187,0.0424242,20.9486,36.1938,-0.505707,0.0,0.0
828,206.75,38.3716,38.6372,165.078,97.0462,104.674,0.000645337,0.0424169,20.9499,36.1637,-0.635553,0.0,0.0
837,209,38.4587,39.1538,171.685,96.9491,101.658,0.000618527,0.0423159,20.9505,36.1938,-0.39834,0.0,0.0
846,211.25,38.4941,38.9251,164.192,96.8247,102.056,0.000646485,0.0422451,20.9505,36.2038,-0.441982,0.0,0.0
852,212.75,38.5274,38.8219,165.913,96.7874,102.17,0.00073873,0.0423442,20.9496,36.1938,-0.45458,0.0,0.0

File: Polyisocyanurate_Spray_Foam_Insulation_Cone_HF50Scalar_241113_R1.csv
LABORATORY,FSRI
TEST IDENT,Polyisocy_HF50_R1
OPERATOR,Marino
MATERIAL,Polyisocyanurate Foam Board Greene County
ORIENTATION,Horizontal
HEAT FLUX,50
SURF AREA,0.01
C FACTOR,0.0398548
SPEC HOLDER DIFF,-566
SPECIMEN MASS,13.08
SCAN TIME,0.25
O2 DELAY TIME,11
CO DELAY TIME,11
CO2 DELAY TIME,8
FLOW FACTOR,1
SCAN COUNT,760
TIME TO IGN,2
END OF TEST SCAN,280
END OF TEST TIME,70
TEST STATUS,1
PRE TEST CMT,Dimensions: 101.93 x 101.65 x 26.46 mm; sample composed of 2 pieces with seam on the right
POST TEST CMT,"Sample popped and shot off pieces of foam. Sample became embrittled. Remains of sample resemble a lattice structure, refer to post test photos"

File: Polyisocyanurate_Spray_Foam_Insulation_Cone_HF50Scalar_241113_R2.csv
LABORATORY,FSRI
TEST IDENT,Polyisocy_HF50_R2
OPERATOR,Marino
MATERIAL,Polyisocyanurate Foam Board Greene County
ORIENTATION,Horizontal
HEAT FLUX,50
SURF AREA,0.01
C FACTOR,0.0398548
SPEC HOLDER DIFF,-566
SPECIMEN MASS,16.73
SCAN TIME,0.25
O2 DELAY TIME,11
CO DELAY TIME,11
CO2 DELAY TIME,8
FLOW FACTOR,1
SCAN COUNT,840
TIME TO IGN,2.75
END OF TEST SCAN,360
END OF TEST TIME,90
TEST STATUS,1
PRE TEST CMT,Dimensions: 102.15 x 102.11 x 24.70 mm;
POST TEST CMT,"Sample popped and shot off pieces of foam. Sample became embrittled. Remains of sample resemble a lattice structure, refer to post test photos"