Folder: fsri_materials_database/01_Data/Roof_Felt/FTIR/IS

File: Roof_Felt_IS_T_220829_R2.dpt
7497.03,0.03646
7473.89,0.03062
7450.74,0.03260
7427.6,0.03113
7404.45,0.02576
7381.31,0.01874
7358.16,0.02259
7335.02,0.02615
7311.87,0.02642
7288.73,0.01890
7265.58,0.02236
7242.44,0.03330
7219.29,0.02626
7196.15,0.02917
7173,0.02745
7149.86,0.01766
7126.71,0.02183
7103.57,0.01701
7080.42,0.03162
7057.28,0.02248
7034.13,0.02536
7010.99,0.02085
6987.84,0.02692
6964.7,0.02376
6941.55,0.02306
6918.41,0.02590
6895.26,0.02187
6872.12,0.01986
6848.97,0.01937
6825.83,0.02625
6802.68,0.02982
6779.54,0.02452
6756.39,0.02479
6733.25,0.02425
6710.1,0.02800
6686.96,0.02362
6663.82,0.02226
6640.67,0.02432
6617.53,0.02084
6594.38,0.02292
6571.24,0.02026
6548.09,0.02445
6524.95,0.02413
6501.8,0.02330
6478.66,0.01970
6455.51,0.02297
6432.37,0.02389
6409.22,0.02273
6386.08,0.02254
6362.93,0.02521
6339.79,0.02220
6316.64,0.02002
6293.5,0.02450
6270.35,0.02343
6247.21,0.02371
6224.06,0.02184
6200.92,0.02229
6177.77,0.02344
6154.63,0.02013
6131.48,0.02272
6108.34,0.02060
6085.19,0.02119
6062.05,0.02305
6038.9,0.02116
6015.76,0.02269
5992.61,0.02299
5969.47,0.02151
5946.32,0.01986
5923.18,0.02418
5900.03,0.02367
5876.89,0.02362
5853.74,0.02109
5830.6,0.02085
5807.45,0.02266
5784.31,0.02183
5761.16,0.02026
5738.02,0.02151
5714.87,0.02248
5691.73,0.02172
5668.58,0.02249
5645.44,0.02077
5622.29,0.02181
5599.15,0.02138
5576,0.02283
5552.86,0.02306
5529.71,0.02203
5506.57,0.02123
5483.42,0.02281
5460.28,0.02160
5437.13,0.02489
5413.99,0.02280
5390.84,0.02158
5367.7,0.02158
5344.55,0.02309
5321.41,0.02322
5298.26,0.02151
5275.12,0.02110
5251.97,0.02227
5228.83,0.02127
5205.68,0.02095
5182.54,0.02283
5159.39,0.02212
5136.25,0.02320
5113.1,0.02108
5089.96,0.02296
5066.81,0.02113
5043.67,0.02292
5020.52,0.02209
4997.38,0.02221
4974.23,0.02318
4951.09,0.02114
4927.94,0.02149
4904.8,0.02273
4881.65,0.02204
4858.51,0.02155
4835.36,0.02218
4812.22,0.02320
4789.07,0.02232
4765.93,0.02207
4742.78,0.02258
4719.64,0.02270
4696.49,0.02244
4673.35,0.02283
4650.2,0.02239
4627.06,0.02248
4603.92,0.02198
4580.77,0.02254
4557.63,0.02072
4534.48,0.02241
4511.34,0.02264
4488.19,0.02281
4465.05,0.02298
4441.9,0.02244
4418.76,0.02277
4395.61,0.02242
4372.47,0.02230
4349.32,0.02223
4326.18,0.02211
4303.03,0.02242
4279.89,0.02215
4256.74,0.02277
4233.6,0.02280
4210.45,0.02307
4187.31,0.02296
4164.16,0.02318
4141.02,0.02272
4117.87,0.02259
4094.73,0.02264
4071.58,0.02307
4048.44,0.02316
4025.29,0.02236
4002.15,0.02282
3979,0.02296
3955.86,0.02298
3932.71,0.02281
3909.57,0.02270
3886.42,0.02291
3863.28,0.02218
3840.13,0.02282
3816.99,0.02250
3793.84,0.02252
3770.7,0.02256
3747.55,0.02317
3724.41,0.02275
3701.26,0.02245
3678.12,0.02279
3654.97,0.02308
3631.83,0.02290
3608.68,0.02217
3585.54,0.02174
3562.39,0.02124
3539.25,0.02144
3516.1,0.02098
3492.96,0.02078
3469.81,0.02107
3446.67,0.02055
3423.52,0.02022
3400.38,0.02019
3377.23,0.02064
3354.09,0.02097
3330.94,0.02041
3307.8,0.01994
3284.65,0.02040
3261.51,0.02040
3238.36,0.02065
3215.22,0.02116
3192.07,0.02138
3168.93,0.02099
3145.78,0.02066
3122.64,0.02052
3099.49,0.02084
3076.35,0.02048
3053.2,0.02099
3030.06,0.02036
3006.91,0.01989
2983.77,0.01969
2960.62,0.01954
2937.48,0.01999
2914.33,0.02058
2891.19,0.02052
2868.04,0.02011
2844.9,0.02120
2821.75,0.02145
2798.61,0.02208
2775.46,0.02145
2752.32,0.02146
2729.17,0.02094
2706.03,0.02136
2682.88,0.02157
2659.74,0.02118
2636.59,0.02142
2613.45,0.02075
2590.3,0.02130
2567.16,0.02122
2544.02,0.02157
2520.87,0.02135
2497.73,0.02097
2474.58,0.02109
2451.44,0.02124
2428.29,0.02097
2405.15,0.02134
2382,0.02106
2358.86,0.02123
2335.71,0.02098
2312.57,0.02115
2289.42,0.02130
2266.28,0.02117
2243.13,0.02162
2219.99,0.02099
2196.84,0.02109
2173.7,0.02134
2150.55,0.02097
2127.41,0.02082
2104.26,0.02099
2081.12,0.02127
2057.97,0.02097
2034.83,0.02113
2011.68,0.02072
1988.54,0.02089
1965.39,0.02109
1942.25,0.02082
1919.1,0.02085
1895.96,0.02051
1872.81,0.02058
1849.67,0.02034
1826.52,0.01998
1803.38,0.01986
1780.23,0.01918
1757.09,0.01723
1733.94,0.01984
1710.8,0.02067
1687.65,0.01956
1664.51,0.01886
1641.36,0.01830
1618.22,0.01892
1595.07,0.01915
1571.93,0.01824
1548.78,0.01856
1525.64,0.01865
1502.49,0.01849
1479.35,0.01860
1456.2,0.01813
1433.06,0.01911
1409.91,0.01860
1386.77,0.01824
1363.62,0.01821
1340.48,0.01763
1317.33,0.01698
1294.19,0.01771
1271.04,0.01969
1247.9,0.02031
1224.75,0.01961
1201.61,0.01867
1178.46,0.01858
1155.32,0.01784
1132.17,0.01803
1109.03,0.01850
1085.88,0.01793
1062.74,0.02026
1039.59,0.02002
1016.45,0.01942
993.304,0.02138
970.159,0.02004
947.014,0.02030
923.869,0.01898
900.724,0.01933
877.579,0.01958
854.434,0.01911
831.289,0.01948
808.144,0.01947
784.999,0.01809
761.854,0.01844
738.709,0.01827
715.565,0.01814
692.42,0.01862
669.275,0.01735
646.13,0.01662
622.985,0.01727
599.84,0.01611