Folder: fsri_materials_database/01_Data/Protective_Hood/STA/N2/10K_min

File: Protective_Hood_STA_N2_10KData_240319_R1.csv
Temp./C,Time/min,DSC/(mW/mg),Mass loss/mg
60.0,0.0,0.838657,-0.0264072
62.5,0.280183,0.905269,-0.0261077
65,0.552852,0.955705,-0.0274419
67.5,0.820097,1.00074,-0.0274132
70,1.08292,1.04345,-0.0266154
72.5,1.34625,1.07411,-0.0274341
75,1.60907,1.1041,-0.0287717
77.5,1.86807,1.12965,-0.0303455
80,2.12133,1.14249,-0.0320326
82.5,2.37699,1.1641,-0.0313608
85,2.63083,1.17954,-0.0317508
87.5,2.88363,1.19359,-0.0330553
90,3.12822,1.18427,-0.0344253
92.5,3.37962,1.18626,-0.03732
95,3.62707,1.17557,-0.0369887
97.5,3.87229,1.15531,-0.0383
100,4.11774,1.14756,-0.0392741
102.5,4.36083,1.14064,-0.03798
105,4.60341,1.12919,-0.0404741
107.5,4.84658,1.11914,-0.0399254
110,5.08793,1.1099,-0.0399579
112.5,5.3316,1.10305,-0.0386446
115,5.57341,1.10639,-0.0412678
117.5,5.81391,1.1033,-0.042653
120,6.05553,1.10605,-0.0439969
122.5,6.29813,1.10972,-0.0439187
125,6.53838,1.10566,-0.0426849
127.5,6.77954,1.11763,-0.0426919
130,7.02048,1.13307,-0.042076
132.5,7.26134,1.13478,-0.0407131
135,7.50062,1.14672,-0.0413858
137.5,7.74035,1.14843,-0.0418232
140,7.98082,1.16012,-0.0433602
142.5,8.22005,1.16273,-0.0440192
145,8.46035,1.18373,-0.0400518
147.5,8.69853,1.19605,-0.0413551
150,8.93601,1.20242,-0.041392
152.5,9.17562,1.21,-0.0427246
155,9.41318,1.21476,-0.0427037
157.5,9.65129,1.22072,-0.0438989
160,9.89003,1.2286,-0.0420391
162.5,10.125,1.23336,-0.044775
165,10.3643,1.23961,-0.0460994
167.5,10.6019,1.2463,-0.04347
170,10.8406,1.27271,-0.0447731
172.5,11.0759,1.28303,-0.04479
175,11.3155,1.30102,-0.0445632
177.5,11.5553,1.29936,-0.04248
180,11.7925,1.31076,-0.0427791
182.5,12.0305,1.31043,-0.045443
185,12.267,1.32302,-0.04808
187.5,12.5058,1.32268,-0.04907
190,12.7409,1.32872,-0.0493998
192.5,12.979,1.34228,-0.0510566
195,13.2167,1.35329,-0.0535976
197.5,13.4533,1.36698,-0.0533982
200,13.6909,1.38352,-0.0566499
202.5,13.9287,1.40392,-0.0566485
205,14.164,1.42388,-0.0625686
207.5,14.4016,1.43878,-0.06521
210,14.6401,1.46884,-0.0704876
212.5,14.8776,1.48836,-0.0754007
215,15.1128,1.51621,-0.0809112
217.5,15.3538,1.56076,-0.0891258
220,15.5939,1.64586,-0.094687
222.5,15.8342,1.8234,-0.104876
225,16.0767,2.2532,-0.116433
227.5,16.3162,2.1824,-0.133554
230,16.5472,1.7679,-0.14685
232.5,16.7807,1.5741,-0.163415
235,17.0164,1.46562,-0.181276
237.5,17.2544,1.4235,-0.198259
240,17.4916,1.40607,-0.218734
242.5,17.7282,1.37222,-0.238404
245,17.9648,1.33501,-0.256867
247.5,18.2007,1.33837,-0.269627
250,18.4396,1.4255,-0.281667
252.5,18.6786,1.62995,-0.296299
255,18.92,2.00528,-0.321976
257.5,19.1654,2.58725,-0.354031
260,19.4099,3.25024,-0.398587
262.5,19.6574,3.85627,-0.462665
265,19.9013,4.28614,-0.535366
267.5,20.1429,4.49814,-0.618389
270,20.3834,4.54352,-0.705791
272.5,20.6209,4.42103,-0.797246
275,20.856,4.09969,-0.883134
277.5,21.0893,3.66406,-0.96278
280,21.3219,3.15274,-1.03033
282.5,21.5534,2.61327,-1.08913
285,21.7852,2.04859,-1.13815
287.5,22.0178,1.54597,-1.17284
290,22.2504,1.21697,-1.19096
292.5,22.4853,1.03377,-1.20819
295,22.7236,0.946874,-1.21989
297.5,22.9604,0.910471,-1.22964
300,23.1981,0.888366,-1.23916
302.5,23.4375,0.87585,-1.24771
305,23.6749,0.859387,-1.25404
307.5,23.9144,0.838826,-1.26374
310,24.153,0.825927,-1.27333
312.5,24.3922,0.816732,-1.27825
315,24.6314,0.794965,-1.28719
317.5,24.8715,0.789698,-1.29689
320,25.1102,0.764183,-1.30257
322.5,25.3524,0.753882,-1.30927
325,25.5901,0.74487,-1.31455
327.5,25.83,0.742109,-1.3243
330,26.0735,0.740036,-1.32904
332.5,26.3139,0.729769,-1.33689
335,26.5535,0.721722,-1.34519
337.5,26.7959,0.729658,-1.35274
340,27.0369,0.721077,-1.35729
342.5,27.2787,0.722498,-1.365
345,27.5184,0.718007,-1.3724
347.5,27.7605,0.717058,-1.37766
350,28.0024,0.728432,-1.38285
352.5,28.2438,0.729884,-1.38483
355,28.4869,0.735128,-1.3926
357.5,28.7284,0.746601,-1.40192
360,28.9702,0.76339,-1.40719
362.5,29.2147,0.765656,-1.41254
365,29.4574,0.778084,-1.41487
367.5,29.6998,0.791362,-1.42047
370,29.9433,0.792716,-1.42764
372.5,30.1847,0.801964,-1.42914
375,30.4275,0.813453,-1.43289
377.5,30.6706,0.813921,-1.43828
380,30.914,0.820802,-1.44144
382.5,31.1561,0.83031,-1.44463
385,31.4009,0.841807,-1.44727
387.5,31.6427,0.84566,-1.45169
390,31.8894,0.849971,-1.45711
392.5,32.1332,0.862594,-1.46198
395,32.3764,0.86628,-1.462
397.5,32.6204,0.879167,-1.46521
400,32.8652,0.882206,-1.46989
402.5,33.1094,0.893465,-1.47252
405,33.3548,0.904851,-1.4755
407.5,33.5981,0.910853,-1.48042
410,33.8429,0.932387,-1.48305
412.5,34.0891,0.942654,-1.48667
415,34.3339,0.95028,-1.48877
417.5,34.5788,0.958173,-1.48733
420,34.8231,0.977236,-1.49277
422.5,35.0673,0.979155,-1.50055
425,35.3125,0.989535,-1.50299
427.5,35.5579,1.00438,-1.50465
430,35.8051,1.0112,-1.50996
432.5,36.0511,1.02219,-1.51752
435,36.298,1.01788,-1.52062
437.5,36.5427,1.02183,-1.51996
440,36.789,1.01176,-1.52653
442.5,37.0349,1.00694,-1.53179
445,37.2805,1.00126,-1.53241
447.5,37.5269,0.997726,-1.53948
450,37.771,0.985703,-1.54364
452.5,38.02,0.982779,-1.54585
455,38.2654,0.972856,-1.55271
457.5,38.5131,0.962665,-1.55684
460,38.7589,0.965122,-1.55894
462.5,39.0061,0.960179,-1.56525
465,39.2531,0.968474,-1.57033
467.5,39.4997,0.966415,-1.57899
470,39.7465,0.963819,-1.58219
472.5,39.9938,0.967058,-1.58753
475,40.2412,0.97568,-1.59382
477.5,40.4896,0.979195,-1.59943
480,40.7373,0.985225,-1.60542
482.5,40.9841,0.993421,-1.61128
485,41.2333,0.995335,-1.62211
487.5,41.4815,0.985679,-1.63366
490,41.7292,0.980767,-1.63271
492.5,41.9771,0.958178,-1.64857
495,42.2248,0.941697,-1.66078
497.5,42.4704,0.9337,-1.67174
500,42.7194,0.925601,-1.68291
502.5,42.9685,0.922586,-1.69244
505,43.2179,0.92459,-1.70539
507.5,43.4669,0.920376,-1.71926
510,43.7161,0.922115,-1.73372
512.5,43.9657,0.917543,-1.7489
515,44.2156,0.914606,-1.76079
517.5,44.4646,0.9242,-1.77995
520,44.7136,0.927299,-1.79138
522.5,44.9624,0.923454,-1.80748
525,45.2118,0.918264,-1.8263
527.5,45.4615,0.916089,-1.83935
530,45.7103,0.911682,-1.85012
532.5,45.9607,0.907632,-1.8689
535,46.2109,0.901082,-1.88562
537.5,46.4613,0.893312,-1.9032
540,46.7117,0.881792,-1.91826
542.5,46.9621,0.87708,-1.9278
545,47.2101,0.85512,-1.9472
547.5,47.461,0.860731,-1.95919
550,47.7111,0.857521,-1.97406
552.5,47.9604,0.840762,-1.99055
555,48.2112,0.833769,-2.00542
557.5,48.46,0.82169,-2.02209
560,48.7106,0.816367,-2.03374
562.5,48.9593,0.812166,-2.05238
565,49.2119,0.810476,-2.06599
567.5,49.4629,0.792502,-2.08071
570,49.7129,0.798266,-2.09269
572.5,49.9641,0.799446,-2.10782
575,50.2148,0.781843,-2.12251
577.5,50.4645,0.780803,-2.13599
580,50.7155,0.778391,-2.14819
582.5,50.9668,0.768598,-2.16339
585,51.2174,0.776857,-2.17457
587.5,51.4681,0.763413,-2.18564
590,51.718,0.755017,-2.1975
592.5,51.9701,0.760691,-2.21027
595,52.2207,0.759158,-2.22437
597.5,52.4733,0.761065,-2.2337
600,52.725,0.766483,-2.24168
602.5,52.9772,0.763824,-2.2534
605,53.2287,0.770162,-2.26448
607.5,53.4816,0.765289,-2.27485
610,53.7318,0.76741,-2.2841
612.5,53.9843,0.757433,-2.29347
615,54.2369,0.75954,-2.30075
617.5,54.4893,0.752354,-2.30953
620,54.7409,0.747312,-2.31719
622.5,54.9919,0.741409,-2.32267
625,55.2444,0.74408,-2.32677
627.5,55.495,0.742139,-2.33234
630,55.7454,0.73396,-2.33895
632.5,55.9954,0.728188,-2.34562
635,56.2466,0.720293,-2.35221
637.5,56.5002,0.712647,-2.35584
640,56.7514,0.711027,-2.3611
642.5,57.0016,0.717607,-2.3678
645,57.2544,0.722162,-2.37523
647.5,57.5068,0.727964,-2.37551
650,57.7591,0.729094,-2.37811
652.5,58.0114,0.725292,-2.3834
655,58.2645,0.719962,-2.38826
657.5,58.5179,0.714716,-2.39129
660,58.7688,0.70998,-2.39655
662.5,59.0211,0.690256,-2.3992
665,59.2727,0.689072,-2.40248
667.5,59.5257,0.682125,-2.40379
670,59.7775,0.679722,-2.40644
672.5,60.0304,0.668968,-2.40932
675,60.2825,0.651744,-2.41363
677.5,60.5356,0.632506,-2.41697
680,60.7883,0.631446,-2.42096
682.5,61.0424,0.611713,-2.42487
685,61.295,0.602054,-2.42755
687.5,61.5481,0.584599,-2.42982
690,61.8008,0.56042,-2.43247
692.5,62.0527,0.542976,-2.4339
695,62.3054,0.533207,-2.43496
697.5,62.5583,0.513342,-2.43904
700,62.8114,0.502694,-2.443
702.5,63.0641,0.483479,-2.44431
705,63.3171,0.462864,-2.44695
707.5,63.5685,0.443924,-2.44767
710,63.823,0.425184,-2.44992
712.5,64.0757,0.407169,-2.45428
715,64.33,0.386537,-2.45654
717.5,64.5838,0.360198,-2.45804
720,64.838,0.335108,-2.45903
722.5,65.093,0.312886,-2.46034
725,65.3475,0.300383,-2.46298
727.5,65.6032,0.278753,-2.46704
730,65.8573,0.260638,-2.46835
732.5,66.111,0.244372,-2.46965
735,66.3652,0.221457,-2.471
737.5,66.62,0.212523,-2.47226
740,66.8735,0.187451,-2.47362
742.5,67.1286,0.161336,-2.47758
745,67.3837,0.145487,-2.4789
747.5,67.6385,0.120722,-2.48052
750,67.8933,0.112049,-2.48149
752.5,68.1463,0.0946477,-2.48408
755,68.4022,0.0849799,-2.48672
757.5,68.657,0.0681152,-2.48672
760,68.9127,0.0750213,-2.48932
762.5,69.169,0.0602973,-2.49196
765,69.4249,0.0604499,-2.49459
767.5,69.6812,0.0548723,-2.4946
770,69.9374,0.0550084,-2.49592
772.5,70.1939,0.0609053,-2.49723
775,70.4493,0.0632248,-2.49722
777.5,70.7053,0.0680364,-2.49921
780,70.9609,0.080855,-2.50184
782.5,71.2168,0.103513,-2.50184
785,71.472,0.113973,-2.50315
787.5,71.7298,0.136926,-2.50184
790,71.9868,0.152342,-2.50184

File: Protective_Hood_STA_N2_10KData_240320_R2.csv
Temp./C,Time/min,DSC/(mW/mg),Mass loss/mg
60.0,0.0,0.782027,-0.0310835
62.5,0.281663,0.848015,-0.0326065
65,0.555747,0.893084,-0.0320733
67.5,0.824363,0.9356,-0.0324822
70,1.08857,0.966562,-0.0367543
72.5,1.35241,0.99066,-0.0376432
75,1.61325,1.02407,-0.0344841
77.5,1.87002,1.03608,-0.03644
80,2.12767,1.06957,-0.03732
82.5,2.38618,1.08198,-0.03863
85,2.63834,1.07671,-0.0421788
87.5,2.88865,1.09192,-0.0386312
90,3.13992,1.08595,-0.0423692
92.5,3.38641,1.08317,-0.0410347
95,3.6328,1.07231,-0.0427193
97.5,3.8788,1.07592,-0.0400595
100,4.12299,1.05641,-0.0431512
102.5,4.36522,1.04503,-0.0464899
105,4.60859,1.04577,-0.0430547
107.5,4.85198,1.0327,-0.0440219
110,5.09273,1.03192,-0.0446576
112.5,5.33537,1.03348,-0.042379
115,5.57701,1.03055,-0.0473047
117.5,5.81614,1.03851,-0.046
120,6.06087,1.04522,-0.0489776
122.5,6.30184,1.05826,-0.0469799
125,6.54125,1.07183,-0.045991
127.5,6.78464,1.07954,-0.0457754
130,7.02483,1.08487,-0.0444545
132.5,7.26654,1.10341,-0.0454474
135,7.50584,1.11473,-0.0440856
137.5,7.74493,1.1133,-0.0447924
140,7.98464,1.12899,-0.0467585
142.5,8.22312,1.13589,-0.0484013
145,8.46108,1.1418,-0.0480726
147.5,8.70183,1.15573,-0.04609
150,8.94142,1.16369,-0.0474213
152.5,9.17951,1.17619,-0.051092
155,9.41893,1.18612,-0.0470161
157.5,9.6567,1.19455,-0.0476627
160,9.8945,1.20172,-0.0482741
162.5,10.1327,1.20879,-0.04895
165,10.3717,1.21623,-0.047684
167.5,10.6093,1.22625,-0.046714
170,10.8468,1.22678,-0.04896
172.5,11.0847,1.23302,-0.0476398
175,11.3216,1.24203,-0.0502586
177.5,11.5603,1.25032,-0.0523672
180,11.7981,1.26015,-0.0522425
182.5,12.0357,1.27031,-0.0512685
185,12.2735,1.29886,-0.0512762
187.5,12.5102,1.304,-0.0561927
190,12.7484,1.31526,-0.0578685
192.5,12.984,1.34109,-0.0571815
195,13.2209,1.35122,-0.0611286
197.5,13.4594,1.36234,-0.0620933
200,13.6979,1.39274,-0.0651647
202.5,13.9368,1.42083,-0.0690422
205,14.1758,1.46186,-0.0690501
207.5,14.4135,1.48135,-0.0732198
210,14.6515,1.51707,-0.0771572
212.5,14.8886,1.55658,-0.0787784
215,15.1284,1.62964,-0.0866216
217.5,15.3684,1.68571,-0.0932744
220,15.6043,1.62447,-0.0997765
222.5,15.84,1.49166,-0.108155
225,16.0783,1.50137,-0.114012
227.5,16.3147,1.51655,-0.129194
230,16.55,1.43216,-0.136143
232.5,16.7865,1.35423,-0.150052
235,17.0239,1.3064,-0.167954
237.5,17.2601,1.27793,-0.177043
240,17.4978,1.25282,-0.186921
242.5,17.7326,1.22003,-0.198611
245,17.9701,1.20481,-0.210281
247.5,18.2078,1.1898,-0.226696
250,18.4451,1.20252,-0.239753
252.5,18.6835,1.23997,-0.252494
255,18.9237,1.31523,-0.270027
257.5,19.1618,1.44992,-0.286727
260,19.3997,1.62799,-0.311241
262.5,19.6425,1.89914,-0.339478
265,19.884,2.29372,-0.376846
267.5,20.1299,2.79968,-0.423732
270,20.3744,3.26729,-0.492267
272.5,20.6182,3.56597,-0.570615
275,20.8593,3.67479,-0.660326
277.5,21.0972,3.61664,-0.756875
280,21.3346,3.43534,-0.859015
282.5,21.5691,3.07801,-0.952925
285,21.7995,2.45237,-1.03188
287.5,22.0301,1.73772,-1.09658
290,22.2637,1.29307,-1.1311
292.5,22.4996,1.11577,-1.15031
295,22.7374,1.05646,-1.16191
297.5,22.9737,1.0258,-1.17715
300,23.2137,1.00877,-1.18424
302.5,23.4523,0.987018,-1.19284
305,23.6917,0.972767,-1.19959
307.5,23.9307,0.952025,-1.20761
310,24.1706,0.944669,-1.2155
312.5,24.4098,0.914045,-1.21958
315,24.6499,0.911924,-1.22383
317.5,24.8909,0.887978,-1.23068
320,25.1308,0.882703,-1.24102
322.5,25.3709,0.867031,-1.24658
325,25.6101,0.879013,-1.25218
327.5,25.8502,0.920266,-1.25509
330,26.0913,0.934807,-1.26634
332.5,26.331,0.921881,-1.27183
335,26.5724,0.900331,-1.27591
337.5,26.8127,0.87079,-1.28134
340,27.0534,0.860285,-1.28798
342.5,27.2945,0.840024,-1.29462
345,27.5361,0.828945,-1.30129
347.5,27.7771,0.826046,-1.30672
350,28.0171,0.827817,-1.30959
352.5,28.2588,0.82697,-1.31658
355,28.5001,0.83105,-1.32218
357.5,28.7416,0.829328,-1.32884
360,28.9863,0.832779,-1.33385
362.5,29.2281,0.826824,-1.33911
365,29.4697,0.83695,-1.34322
367.5,29.7135,0.83472,-1.34759
370,29.956,0.853451,-1.35307
372.5,30.1984,0.851318,-1.35735
375,30.4423,0.848884,-1.36949
377.5,30.6847,0.865101,-1.37174
380,30.9289,0.856823,-1.37755
382.5,31.1728,0.861259,-1.38736
385,31.4157,0.864701,-1.39414
387.5,31.6602,0.875366,-1.40226
390,31.9047,0.882007,-1.40423
392.5,32.1482,0.882858,-1.41332
395,32.3929,0.887451,-1.41883
397.5,32.6356,0.896339,-1.42303
400,32.8793,0.897965,-1.43023
402.5,33.1239,0.898829,-1.43731
405,33.3681,0.90199,-1.44779
407.5,33.6127,0.910827,-1.45347
410,33.8565,0.904605,-1.46372
412.5,34.1026,0.908394,-1.46635
415,34.3481,0.90774,-1.47325
417.5,34.5925,0.916507,-1.48035
420,34.8374,0.916953,-1.48456
422.5,35.0828,0.931838,-1.49127
425,35.3281,0.93481,-1.49729
427.5,35.5746,0.949049,-1.5009
430,35.8205,0.96364,-1.50841
432.5,36.0661,0.962591,-1.51291
435,36.3115,0.986956,-1.51665
437.5,36.558,0.981514,-1.52376
440,36.8015,0.981644,-1.5289
442.5,37.0485,0.980131,-1.53619
445,37.2948,0.977085,-1.53862
447.5,37.5398,0.966586,-1.54815
450,37.7854,0.953322,-1.55244
452.5,38.0296,0.951049,-1.55765
455,38.2785,0.945738,-1.56286
457.5,38.5253,0.93682,-1.56549
460,38.7709,0.93357,-1.56857
462.5,39.0182,0.934523,-1.57524
465,39.2657,0.923343,-1.58498
467.5,39.5127,0.907727,-1.59232
470,39.7596,0.915099,-1.59405
472.5,40.0068,0.913255,-1.60035
475,40.2538,0.914564,-1.60578
477.5,40.5013,0.92507,-1.61121
480,40.7478,0.924445,-1.61261
482.5,40.9942,0.917944,-1.62479
485,41.2451,0.913994,-1.63293
487.5,41.4924,0.91388,-1.64026
490,41.7404,0.90602,-1.6469
492.5,41.9884,0.898334,-1.65279
495,42.2364,0.890642,-1.66027
497.5,42.4852,0.877597,-1.67407
500,42.7346,0.876178,-1.68109
502.5,42.9827,0.870659,-1.69134
505,43.231,0.856429,-1.70372
507.5,43.4786,0.861226,-1.71003
510,43.7282,0.853803,-1.72435
512.5,43.9785,0.863632,-1.73334
515,44.2278,0.865699,-1.74814
517.5,44.4762,0.865398,-1.76051
520,44.727,0.854103,-1.77601
522.5,44.9765,0.857075,-1.78884
525,45.2264,0.848738,-1.79962
527.5,45.4757,0.843975,-1.81135
530,45.7229,0.830698,-1.82604
532.5,45.9723,0.819001,-1.84279
535,46.2226,0.810273,-1.85896
537.5,46.4687,0.781847,-1.87618
540,46.7195,0.759922,-1.89478
542.5,46.9661,0.715057,-1.91514
545,47.2181,0.656122,-1.93294
547.5,47.466,0.573397,-1.95043
550,47.7136,0.496398,-1.97541
552.5,47.9631,0.414769,-1.99205
555,48.2117,0.339117,-2.01315
557.5,48.4598,0.302101,-2.02325
560,48.7089,0.294272,-2.03877
562.5,48.9585,0.319462,-2.06214
565,49.2113,0.398276,-2.06795
567.5,49.4619,0.476373,-2.077
570,49.7139,0.544986,-2.08524
572.5,49.9653,0.580004,-2.09274
575,50.2158,0.588465,-2.10223
577.5,50.4654,0.589726,-2.10751
580,50.7171,0.599726,-2.11526
582.5,50.9679,0.607175,-2.12909
585,51.22,0.616786,-2.13325
587.5,51.4706,0.621439,-2.14413
590,51.7227,0.626474,-2.14961
592.5,51.9732,0.622841,-2.15986
595,52.2255,0.623956,-2.175
597.5,52.478,0.636562,-2.17916
600,52.7296,0.639268,-2.18631
602.5,52.9818,0.636667,-2.1919
605,53.2328,0.65237,-2.20362
607.5,53.485,0.67185,-2.20608
610,53.7366,0.688738,-2.21474
612.5,53.9888,0.689533,-2.22289
615,54.2418,0.705528,-2.23167
617.5,54.4942,0.706924,-2.2386
620,54.7468,0.71687,-2.23847
622.5,55.0001,0.705598,-2.24656
625,55.2516,0.711127,-2.25024
627.5,55.5049,0.707622,-2.25702
630,55.7558,0.710428,-2.26163
632.5,56.0084,0.714048,-2.26587
635,56.2605,0.714623,-2.27059
637.5,56.5128,0.711559,-2.2754
640,56.7659,0.713452,-2.27894
642.5,57.0186,0.72322,-2.28578
645,57.2707,0.714197,-2.28898
647.5,57.5241,0.718574,-2.28892
650,57.7779,0.708135,-2.29479
652.5,58.0313,0.710651,-2.29765
655,58.2843,0.694523,-2.3028
657.5,58.5373,0.694514,-2.30705
660,58.791,0.684098,-2.30807
662.5,59.0447,0.674833,-2.30939
665,59.2973,0.654259,-2.31488
667.5,59.5503,0.63801,-2.31751
670,59.8054,0.630941,-2.31942
672.5,60.0588,0.633326,-2.32236
675,60.3108,0.605448,-2.32585
677.5,60.567,0.593373,-2.32569
680,60.8214,0.572406,-2.32948
682.5,61.0744,0.559606,-2.33387
685,61.328,0.546982,-2.33762
687.5,61.5818,0.521855,-2.34013
690,61.8362,0.508692,-2.34291
692.5,62.0905,0.4931,-2.34054
695,62.3443,0.476621,-2.3503
697.5,62.5986,0.459137,-2.34847
700,62.8524,0.441935,-2.35251
702.5,63.1054,0.420956,-2.35121
705,63.3586,0.407486,-2.356
707.5,63.6118,0.398759,-2.35714
710,63.8661,0.364931,-2.35583
712.5,64.1197,0.353319,-2.35986
715,64.3747,0.32318,-2.36835
717.5,64.6271,0.30119,-2.36667
720,64.8828,0.280502,-2.36943
722.5,65.1379,0.264574,-2.37208
725,65.3921,0.247603,-2.37614
727.5,65.6462,0.22854,-2.37744
730,65.9013,0.201881,-2.37746
732.5,66.1527,0.190332,-2.37911
735,66.4092,0.180565,-2.3791
737.5,66.6646,0.163377,-2.3801
740,66.9207,0.148275,-2.38772
742.5,67.1757,0.151352,-2.38581
745,67.4308,0.135449,-2.39256
747.5,67.6838,0.121668,-2.38997
750,67.9397,0.111858,-2.39118
752.5,68.1935,0.0895475,-2.39216
755,68.4496,0.0835181,-2.39049
757.5,68.7027,0.067055,-2.39941
760,68.9589,0.0499233,-2.40029
762.5,69.2123,0.0461256,-2.40075
765,69.47,0.044112,-2.40491
767.5,69.7257,0.0367798,-2.40328
770,69.9812,0.0341677,-2.40589
772.5,70.2375,0.04455,-2.4049
775,70.4927,0.0487891,-2.40896
777.5,70.7488,0.0469495,-2.40898
780,71.0044,0.0464073,-2.41062
782.5,71.261,0.0510426,-2.40798
785,71.5158,0.0507698,-2.41028
787.5,71.7725,0.0653109,-2.41064
790,72.0279,0.066952,-2.41655