Folder: fsri_materials_database/01_Data/Protective_Hood/STA/N2/10K_min (part 3)

File: Protective_Hood_STA_N2_10KData_250625_R5.csv
Temp./C,Time/min,DSC/(mW/mg),Mass loss/mg
60.0,0.0,0.832615,-0.0400113
62.5,0.32277,0.907189,-0.0409151
65,0.629994,0.9786,-0.0437189
67.5,0.931118,1.04059,-0.0440367
70,1.22045,1.10257,-0.0440203
72.5,1.50362,1.15918,-0.0454795
75,1.78376,1.22382,-0.04696
77.5,2.05745,1.27349,-0.0492281
80,2.32373,1.34703,-0.0506867
82.5,2.59187,1.39393,-0.0533595
85,2.85446,1.43969,-0.0559216
87.5,3.11164,1.47542,-0.0586259
90,3.36713,1.5064,-0.0599387
92.5,3.6213,1.5399,-0.0626804
95,3.87169,1.54358,-0.0640798
97.5,4.12024,1.56399,-0.0679793
100,4.36729,1.55629,-0.0699226
102.5,4.61081,1.55415,-0.0716029
105,4.85709,1.53278,-0.0731585
107.5,5.10015,1.52301,-0.0767399
110,5.34322,1.51133,-0.0780649
112.5,5.58383,1.48227,-0.0796996
115,5.82563,1.45772,-0.08069
117.5,6.06678,1.42911,-0.0819696
120,6.30774,1.41847,-0.08332
122.5,6.54681,1.39168,-0.0846352
125,6.78799,1.37384,-0.0859608
127.5,7.02604,1.34424,-0.0856299
130,7.26675,1.33376,-0.0879107
132.5,7.50391,1.32879,-0.0881357
135,7.74245,1.30996,-0.0870831
137.5,7.97959,1.30313,-0.0896994
140,8.21828,1.29575,-0.0870663
142.5,8.45421,1.29301,-0.0903773
145,8.69143,1.29138,-0.0887102
147.5,8.9293,1.29082,-0.0887288
150,9.16392,1.29679,-0.088723
152.5,9.40005,1.29763,-0.0898002
155,9.63562,1.30251,-0.0897923
157.5,9.87168,1.30669,-0.0898177
160,10.1075,1.31745,-0.0904525
162.5,10.3441,1.33072,-0.0905909
165,10.5788,1.34502,-0.0905653
167.5,10.8133,1.36218,-0.0909225
170,11.0498,1.36783,-0.0908995
172.5,11.2853,1.37608,-0.0921447
175,11.5212,1.38746,-0.0930933
177.5,11.757,1.40491,-0.0904641
180,11.992,1.40774,-0.0947429
182.5,12.2256,1.43206,-0.0947561
185,12.4634,1.43781,-0.0949571
187.5,12.6979,1.44678,-0.0949592
190,12.9336,1.45436,-0.0962794
192.5,13.1693,1.47041,-0.100346
195,13.4037,1.4841,-0.09902
197.5,13.6379,1.50305,-0.0977123
200,13.8735,1.51581,-0.101651
202.5,14.1095,1.5333,-0.104304
205,14.3446,1.55065,-0.105609
207.5,14.5801,1.56948,-0.10824
210,14.8158,1.5939,-0.112218
212.5,15.0506,1.62891,-0.114825
215,15.288,1.66901,-0.120946
217.5,15.523,1.7374,-0.129621
220,15.7605,1.84867,-0.131211
222.5,15.9976,2.05971,-0.135121
225,16.2418,2.79088,-0.149275
227.5,16.4952,4.21601,-0.158833
230,16.7101,2.32602,-0.172569
232.5,16.9393,1.81452,-0.184719
235,17.1724,1.69304,-0.195801
237.5,17.4085,1.66955,-0.215936
240,17.6441,1.6884,-0.234651
242.5,17.8802,1.75313,-0.259982
245,18.1187,1.93449,-0.289743
247.5,18.3595,2.39771,-0.32511
250,18.6057,3.34657,-0.376379
252.5,18.859,4.63985,-0.447962
255,19.1057,5.67237,-0.540008
257.5,19.3545,6.3506,-0.65606
260,19.5956,6.67309,-0.794681
262.5,19.831,6.56913,-0.944991
265,20.0632,6.08326,-1.0915
267.5,20.2903,5.32607,-1.22968
270,20.5165,4.39602,-1.35228
272.5,20.7429,3.43661,-1.45178
275,20.9686,2.59202,-1.53084
277.5,21.1971,1.91101,-1.59778
280,21.4268,1.42017,-1.64801
282.5,21.6596,1.11456,-1.68332
285,21.8947,0.955098,-1.71014
287.5,22.1303,0.866847,-1.73042
290,22.3656,0.834298,-1.74944
292.5,22.6025,0.795886,-1.7645
295,22.8399,0.75436,-1.77987
297.5,23.0761,0.717615,-1.79591
300,23.314,0.689504,-1.80849
302.5,23.5511,0.671083,-1.82267
305,23.7896,0.639113,-1.83465
307.5,24.0249,0.6187,-1.84985
310,24.2663,0.588929,-1.86327
312.5,24.5032,0.568864,-1.87433
315,24.7413,0.555587,-1.88905
317.5,24.9792,0.532995,-1.90371
320,25.2166,0.5214,-1.9152
322.5,25.4544,0.498247,-1.92823
325,25.6934,0.484466,-1.93967
327.5,25.932,0.470036,-1.9565
330,26.1715,0.464205,-1.96462
332.5,26.4101,0.459317,-1.97884
335,26.6498,0.458726,-1.99057
337.5,26.8894,0.468384,-2.0065
340,27.1292,0.476428,-2.02024
342.5,27.3705,0.474445,-2.0323
345,27.6105,0.494702,-2.04464
347.5,27.8518,0.506426,-2.05507
350,28.0921,0.533605,-2.06777
352.5,28.3329,0.561639,-2.07587
355,28.5736,0.592849,-2.08572
357.5,28.8148,0.622692,-2.09762
360,29.0567,0.656713,-2.10489
362.5,29.2977,0.67952,-2.11737
365,29.5398,0.708323,-2.12298
367.5,29.781,0.731808,-2.13184
370,30.021,0.750136,-2.14354
372.5,30.2642,0.791015,-2.15064
375,30.5039,0.803769,-2.15854
377.5,30.7468,0.832601,-2.16367
380,30.9892,0.858507,-2.17128
382.5,31.23,0.867682,-2.17488
385,31.4751,0.887312,-2.18506
387.5,31.7177,0.910064,-2.19193
390,31.9604,0.926343,-2.19622
392.5,32.2032,0.936882,-2.20472
395,32.4457,0.953984,-2.20857
397.5,32.6892,0.961844,-2.21619
400,32.9314,0.974959,-2.22043
402.5,33.1742,0.977058,-2.22662
405,33.4169,0.985087,-2.23163
407.5,33.6601,1.01708,-2.23957
410,33.904,1.01228,-2.24396
412.5,34.1478,1.02213,-2.24921
415,34.3917,1.03643,-2.25455
417.5,34.6353,1.04471,-2.25923
420,34.8801,1.05542,-2.26624
422.5,35.1232,1.06875,-2.27052
425,35.3668,1.06511,-2.27634
427.5,35.6116,1.0881,-2.28173
430,35.8565,1.09516,-2.28767
432.5,36.0995,1.10044,-2.29293
435,36.3444,1.10452,-2.29748
437.5,36.5894,1.12277,-2.30348
440,36.8346,1.13202,-2.30878
442.5,37.0801,1.15272,-2.314
445,37.3256,1.15808,-2.32009
447.5,37.5699,1.16263,-2.32531
450,37.8158,1.17356,-2.32993
452.5,38.0601,1.1865,-2.33519
455,38.3057,1.20435,-2.33936
457.5,38.551,1.21421,-2.34727
460,38.7959,1.21171,-2.35254
462.5,39.0404,1.23572,-2.35913
465,39.286,1.24735,-2.36579
467.5,39.5315,1.22567,-2.37044
470,39.7756,1.2461,-2.37502
472.5,40.0202,1.26822,-2.38152
475,40.2682,1.25023,-2.38627
477.5,40.5137,1.2597,-2.39216
480,40.7597,1.25,-2.39919
482.5,41.0035,1.24782,-2.40653
485,41.2507,1.22683,-2.40803
487.5,41.4959,1.23122,-2.41477
490,41.7428,1.21741,-2.41908
492.5,41.99,1.20175,-2.42442
495,42.2365,1.1861,-2.42872
497.5,42.4823,1.17508,-2.43243
500,42.7291,1.16445,-2.43796
502.5,42.9757,1.15025,-2.44098
505,43.2223,1.14917,-2.44453
507.5,43.4691,1.119,-2.44716
510,43.7161,1.11271,-2.45118
512.5,43.9634,1.11178,-2.45352
515,44.2111,1.1057,-2.4577
517.5,44.4582,1.0994,-2.46035
520,44.7057,1.09492,-2.46308
522.5,44.9523,1.08423,-2.4656
525,45.1999,1.09356,-2.46824
527.5,45.4479,1.0843,-2.47071
530,45.6935,1.09379,-2.4722
532.5,45.9436,1.0955,-2.4748
535,46.1912,1.10616,-2.47845
537.5,46.4392,1.09456,-2.47976
540,46.6873,1.10288,-2.48109
542.5,46.9369,1.08696,-2.4834
545,47.1836,1.09624,-2.48537
547.5,47.4327,1.09743,-2.48788
550,47.6806,1.10322,-2.49031
552.5,47.9289,1.10052,-2.49165
555,48.1777,1.09566,-2.49261
557.5,48.4272,1.1039,-2.49525
560,48.675,1.10965,-2.49658
562.5,48.9239,1.10019,-2.4992
565,49.1729,1.10159,-2.50184
567.5,49.4217,1.10746,-2.50445
570,49.6708,1.11971,-2.50836
572.5,49.9199,1.11811,-2.50974
575,50.17,1.12118,-2.50843
577.5,50.4201,1.1217,-2.50843
580,50.6692,1.12328,-2.51238
582.5,50.9202,1.13928,-2.51568
585,51.1695,1.15048,-2.51567
587.5,51.4199,1.14068,-2.51664
590,51.6697,1.13395,-2.5183
592.5,51.9192,1.14383,-2.51957
595,52.1697,1.14522,-2.52223
597.5,52.419,1.14916,-2.52227
600,52.6682,1.15161,-2.52494
602.5,52.9184,1.15823,-2.52615
605,53.1686,1.16212,-2.52776
607.5,53.4182,1.16234,-2.52885
610,53.6686,1.15067,-2.53148
612.5,53.9192,1.15889,-2.53329
615,54.169,1.16508,-2.53426
617.5,54.4199,1.16775,-2.53609
620,54.6698,1.16976,-2.53809
622.5,54.9211,1.17951,-2.54044
625,55.1714,1.1826,-2.54136
627.5,55.422,1.18519,-2.54318
630,55.6709,1.18479,-2.54531
632.5,55.9239,1.18652,-2.54531
635,56.1749,1.19233,-2.54878
637.5,56.426,1.21903,-2.54965
640,56.6777,1.20876,-2.55
642.5,56.9291,1.22121,-2.55256
645,57.1802,1.22606,-2.55652
647.5,57.4316,1.25317,-2.55784
650,57.6832,1.25888,-2.55912
652.5,57.9345,1.25293,-2.56062
655,58.1856,1.24819,-2.5609
657.5,58.4389,1.25679,-2.56485
660,58.6908,1.26817,-2.56529
662.5,58.9417,1.24425,-2.56924
665,59.1939,1.24934,-2.56924
667.5,59.4458,1.24847,-2.57187
670,59.6967,1.24232,-2.57451
672.5,59.9486,1.24453,-2.57586
675,60.2003,1.2441,-2.57616
677.5,60.4522,1.23514,-2.57881
680,60.7033,1.2104,-2.58138
682.5,60.9551,1.20915,-2.58273
685,61.2064,1.1951,-2.58406
687.5,61.4583,1.17633,-2.58806
690,61.7112,1.15013,-2.58801
692.5,61.9624,1.12089,-2.59082
695,62.214,1.08569,-2.59202
697.5,62.4665,1.06654,-2.59409
700,62.719,1.05674,-2.59581
702.5,62.9727,1.03873,-2.59715
705,63.2239,1.0177,-2.60108
707.5,63.476,1.00689,-2.60191
710,63.7295,0.994792,-2.60349
712.5,63.982,0.992922,-2.60548
715,64.2341,0.97004,-2.61014
717.5,64.486,0.962779,-2.61272
720,64.7372,0.948369,-2.61535
722.5,64.9919,0.931,-2.61777
725,65.2455,0.909429,-2.61902
727.5,65.4983,0.887233,-2.62271
730,65.7506,0.871695,-2.62535
732.5,66.0027,0.831378,-2.62798
735,66.2561,0.810648,-2.63094
737.5,66.5091,0.787547,-2.63193
740,66.7635,0.760001,-2.63456
742.5,67.0173,0.74585,-2.63828
745,67.2709,0.701505,-2.64016
747.5,67.523,0.689685,-2.64194
750,67.7773,0.66546,-2.64827
752.5,68.0306,0.625099,-2.64774
755,68.2842,0.607417,-2.65038
757.5,68.5367,0.585963,-2.65038
760,68.788,0.570661,-2.65334
762.5,69.0429,0.5456,-2.65595
765,69.2954,0.53009,-2.65729
767.5,69.5491,0.508327,-2.65989
770,69.8025,0.488838,-2.66026
772.5,70.0552,0.475915,-2.66157
775,70.3096,0.472943,-2.66289
777.5,70.5627,0.456088,-2.66585
780,70.8164,0.439271,-2.66566
782.5,71.0721,0.437181,-2.66748
785,71.3254,0.430797,-2.66887
787.5,71.5801,0.41715,-2.67047
790,71.8342,0.408525,-2.67073