Folder: fsri_materials_database/01_Data/Protective_Hood/STA/N2/30K_min (part 2)

File: Protective_Hood_STA_N2_30KData_250611_R3.csv
Temp./C,Time/min,DSC/(mW/mg),Mass loss/mg
60.0,0.0,1.3472,-0.0165945
62.5,0.146208,1.56571,-0.017859
65,0.281402,1.76418,-0.0178584
67.5,0.406978,1.93251,-0.0180639
70,0.524864,2.08926,-0.0200757
72.5,0.6403,2.23828,-0.0210318
75,0.750745,2.38181,-0.0218601
77.5,0.858333,2.52683,-0.0216819
80,0.963387,2.6688,-0.0241822
82.5,1.06369,2.80298,-0.0229867
85,1.16526,2.94008,-0.0252259
87.5,1.26482,3.08081,-0.0252672
90,1.36167,3.21324,-0.0274854
92.5,1.45748,3.35193,-0.029552
95,1.55167,3.47162,-0.030277
97.5,1.64508,3.59812,-0.0317042
100,1.73735,3.69622,-0.035153
102.5,1.82808,3.80395,-0.036756
105,1.91902,3.89992,-0.040677
107.5,2.00876,3.98036,-0.0407828
110,2.09822,4.05376,-0.0422316
112.5,2.18691,4.09377,-0.042056
115,2.27492,4.12582,-0.0461069
117.5,2.36231,4.1526,-0.0473405
120,2.4492,4.1694,-0.0497276
122.5,2.53536,4.16561,-0.0504558
125,2.62097,4.15221,-0.0526898
127.5,2.70602,4.13151,-0.0540788
130,2.79022,4.11016,-0.0561285
132.5,2.87328,4.08987,-0.0562893
135,2.95659,4.06511,-0.0563451
137.5,3.03916,4.03892,-0.0576418
140,3.1214,4.0244,-0.0589602
142.5,3.20349,3.99324,-0.0589532
145,3.2847,3.96864,-0.0602699
147.5,3.36537,3.95614,-0.0615777
150,3.44607,3.95626,-0.0616328
152.5,3.52621,3.94535,-0.0603416
155,3.60609,3.93896,-0.0615901
157.5,3.68561,3.92932,-0.0616024
160,3.76512,3.92771,-0.0616026
162.5,3.84406,3.93371,-0.0629402
165,3.92334,3.94358,-0.0629099
167.5,4.00147,3.96082,-0.0642159
170,4.0802,3.97627,-0.0642107
172.5,4.15838,3.98751,-0.0628997
175,4.23676,4.01506,-0.0642203
177.5,4.31446,4.03465,-0.06422
180,4.39194,4.06545,-0.0640575
182.5,4.46885,4.09628,-0.0641515
185,4.54609,4.12561,-0.06554
187.5,4.62295,4.15247,-0.06554
190,4.69914,4.18733,-0.06554
192.5,4.77542,4.21156,-0.0655397
195,4.85159,4.25487,-0.0671016
197.5,4.92763,4.28956,-0.0681562
200,5.00349,4.33021,-0.0681733
202.5,5.079,4.37689,-0.0708104
205,5.15471,4.41632,-0.0718012
207.5,5.22993,4.47215,-0.0732052
210,5.30558,4.52611,-0.0747769
212.5,5.38092,4.59872,-0.0768739
215,5.45613,4.69916,-0.0791616
217.5,5.53196,4.86641,-0.0819003
220,5.60825,5.19579,-0.0845788
222.5,5.68553,5.91812,-0.0874887
225,5.76831,8.115,-0.0924807
227.5,5.84611,8.98954,-0.0958521
230,5.91567,7.36858,-0.10067
232.5,5.98672,6.34784,-0.10625
235,6.05886,5.69,-0.111694
237.5,6.13199,5.30389,-0.118749
240,6.20576,5.07152,-0.123621
242.5,6.27935,4.93259,-0.1315
245,6.35341,4.85471,-0.140614
247.5,6.42747,4.80605,-0.150374
250,6.50151,4.79724,-0.161292
252.5,6.57555,4.79498,-0.174853
255,6.64987,4.84822,-0.188731
257.5,6.72472,4.99369,-0.206284
260,6.80032,5.42433,-0.228676
262.5,6.87751,6.3831,-0.25736
265,6.95757,8.14137,-0.292715
267.5,7.03975,10.4896,-0.34166
270,7.12272,12.9177,-0.409044
272.5,7.2039,14.9878,-0.494989
275,7.28441,16.6491,-0.603891
277.5,7.36223,17.7591,-0.73066
280,7.43812,18.1271,-0.875574
282.5,7.51047,17.6018,-1.03025
285,7.58002,16.205,-1.18894
287.5,7.64685,13.9314,-1.33907
290,7.71093,10.9591,-1.46053
292.5,7.77479,7.80556,-1.5699
295,7.8399,5.24017,-1.65468
297.5,7.90772,3.56462,-1.70959
300,7.97815,2.61433,-1.7485
302.5,8.05022,2.09882,-1.77705
305,8.12317,1.83435,-1.79886
307.5,8.19658,1.68422,-1.81606
310,8.26991,1.60541,-1.83352
312.5,8.3439,1.52941,-1.84925
315,8.41797,1.48896,-1.86171
317.5,8.4917,1.4311,-1.87362
320,8.56601,1.37267,-1.88723
322.5,8.63985,1.32803,-1.89933
325,8.71446,1.27614,-1.90969
327.5,8.78847,1.21455,-1.92261
330,8.86287,1.17025,-1.93573
332.5,8.93749,1.12084,-1.94782
335,9.01195,1.06672,-1.96016
337.5,9.08612,1.01061,-1.97123
340,9.16068,0.97059,-1.98277
342.5,9.23527,0.927839,-1.99531
345,9.30975,0.882025,-2.00808
347.5,9.38443,0.847476,-2.01848
350,9.45958,0.816909,-2.03172
352.5,9.53435,0.800397,-2.04196
355,9.60926,0.790654,-2.05375
357.5,9.68461,0.791346,-2.06582
360,9.7596,0.802547,-2.07625
362.5,9.83491,0.833216,-2.0868
365,9.91014,0.869878,-2.09753
367.5,9.98588,0.90621,-2.10718
370,10.0613,0.954124,-2.11843
372.5,10.1369,1.01414,-2.12615
375,10.213,1.06819,-2.13646
377.5,10.2887,1.12918,-2.14501
380,10.3645,1.18911,-2.15287
382.5,10.4405,1.24903,-2.16044
385,10.5168,1.31515,-2.16929
387.5,10.5929,1.37263,-2.17597
390,10.6692,1.42742,-2.18323
392.5,10.7449,1.46677,-2.19014
395,10.8216,1.51416,-2.19662
397.5,10.8982,1.56001,-2.20601
400,10.9747,1.59692,-2.21175
402.5,11.0513,1.64006,-2.21867
405,11.128,1.68411,-2.22263
407.5,11.2045,1.71495,-2.22956
410,11.2812,1.75098,-2.23619
412.5,11.3578,1.77899,-2.24102
415,11.4349,1.79541,-2.24892
417.5,11.5117,1.81612,-2.25249
420,11.5886,1.83129,-2.25818
422.5,11.6658,1.84052,-2.26442
425,11.7425,1.85643,-2.27034
427.5,11.8198,1.86925,-2.27501
430,11.8969,1.8739,-2.28029
432.5,11.9742,1.89179,-2.28544
435,12.0515,1.89723,-2.29156
437.5,12.1288,1.9058,-2.29774
440,12.2064,1.91552,-2.29989
442.5,12.2839,1.92755,-2.30604
445,12.3616,1.94129,-2.31103
447.5,12.4392,1.94636,-2.31641
450,12.517,1.973,-2.32181
452.5,12.5952,1.98026,-2.3267
455,12.6729,1.99835,-2.33359
457.5,12.7512,2.02806,-2.33935
460,12.8293,2.04059,-2.34402
462.5,12.9076,2.07687,-2.34886
465,12.9857,2.0947,-2.35515
467.5,13.064,2.12209,-2.35983
470,13.1421,2.15039,-2.36605
472.5,13.2206,2.17439,-2.37178
475,13.2991,2.20762,-2.3773
477.5,13.3774,2.2236,-2.38396
480,13.456,2.26063,-2.38814
482.5,13.5347,2.27954,-2.39351
485,13.6134,2.31004,-2.40048
487.5,13.6923,2.32359,-2.40644
490,13.7708,2.33678,-2.4109
492.5,13.8495,2.34914,-2.4171
495,13.9281,2.34929,-2.4228
497.5,14.0071,2.35181,-2.42783
500,14.086,2.3398,-2.43494
502.5,14.1649,2.31599,-2.43969
505,14.2439,2.29304,-2.44383
507.5,14.3228,2.24104,-2.45041
510,14.4016,2.20432,-2.45507
512.5,14.4807,2.15773,-2.45949
515,14.5593,2.08801,-2.46379
517.5,14.6387,2.03374,-2.4668
520,14.7176,1.96905,-2.47293
522.5,14.797,1.89618,-2.47648
525,14.8763,1.84107,-2.48064
527.5,14.9554,1.79141,-2.48495
530,15.0347,1.73533,-2.48659
532.5,15.1142,1.69058,-2.48921
535,15.1937,1.64903,-2.49296
537.5,15.2733,1.61797,-2.4958
540,15.3529,1.60046,-2.49853
542.5,15.4326,1.58581,-2.50137
545,15.5126,1.58767,-2.50302
547.5,15.5922,1.57423,-2.50687
550,15.6719,1.56871,-2.50872
552.5,15.7518,1.56737,-2.50996
555,15.832,1.55786,-2.51238
557.5,15.9118,1.54524,-2.51565
560,15.9917,1.52465,-2.51679
562.5,16.0719,1.52374,-2.51952
565,16.1518,1.5164,-2.52083
567.5,16.2323,1.51224,-2.52367
570,16.3122,1.52331,-2.52659
572.5,16.3927,1.52216,-2.5279
575,16.4729,1.52069,-2.52947
577.5,16.5531,1.52364,-2.53353
580,16.6337,1.52868,-2.53351
582.5,16.7139,1.52033,-2.5366
585,16.7945,1.51844,-2.53851
587.5,16.8748,1.50184,-2.53953
590,16.9557,1.50124,-2.54015
592.5,17.0363,1.51149,-2.54253
595,17.117,1.50071,-2.54531
597.5,17.1976,1.50782,-2.54631
600,17.2785,1.50255,-2.5474
602.5,17.3597,1.50716,-2.54909
605,17.4404,1.52369,-2.55319
607.5,17.5216,1.53064,-2.553
610,17.6025,1.53026,-2.55432
612.5,17.6837,1.54325,-2.55433
615,17.765,1.55128,-2.55707
617.5,17.846,1.56126,-2.55967
620,17.9272,1.57446,-2.56102
622.5,18.0086,1.58366,-2.56232
625,18.0897,1.59631,-2.56506
627.5,18.1711,1.61001,-2.56659
630,18.2525,1.62287,-2.56904
632.5,18.3337,1.64116,-2.56906
635,18.4151,1.6597,-2.5703
637.5,18.4969,1.67357,-2.57309
640,18.5785,1.68843,-2.5744
642.5,18.6596,1.70971,-2.57445
645,18.7413,1.72347,-2.57857
647.5,18.8228,1.74033,-2.57858
650,18.9043,1.73617,-2.58033
652.5,18.9861,1.76993,-2.58253
655,19.0679,1.78819,-2.58327
657.5,19.1496,1.7954,-2.58642
660,19.2308,1.80894,-2.58924
662.5,19.3132,1.82503,-2.58923
665,19.3953,1.84505,-2.5912
667.5,19.4772,1.86275,-2.59383
670,19.559,1.8812,-2.59531
672.5,19.6408,1.89843,-2.59653
675,19.7227,1.9244,-2.5984
677.5,19.8049,1.92191,-2.59995
680,19.887,1.94943,-2.60241
682.5,19.969,1.95909,-2.6038
685,20.0508,1.98168,-2.60634
687.5,20.1326,2.00277,-2.60664
690,20.2147,2.01117,-2.60894
692.5,20.2972,2.01727,-2.61241
695,20.3794,2.01493,-2.61443
697.5,20.4615,2.04559,-2.61585
700,20.5438,2.05978,-2.61776
702.5,20.6262,2.05505,-2.61998
705,20.7085,2.03755,-2.62275
707.5,20.7908,2.03143,-2.62275
710,20.8734,2.04016,-2.62401
712.5,20.9553,2.03551,-2.62678
715,21.0386,2.01336,-2.62961
717.5,21.1212,2.02459,-2.63226
720,21.2039,2.02207,-2.63436
722.5,21.2867,1.98887,-2.63512
725,21.3694,1.95415,-2.63521
727.5,21.4524,1.92748,-2.63738
730,21.5349,1.88253,-2.64129
732.5,21.6176,1.83569,-2.64352
735,21.7006,1.77204,-2.64324
737.5,21.7835,1.73379,-2.64535
740,21.8654,1.7054,-2.65098
742.5,21.9492,1.67296,-2.6549
745,22.0318,1.67156,-2.65584
747.5,22.115,1.65352,-2.65724
750,22.1979,1.62757,-2.6586
752.5,22.2803,1.62078,-2.66134
755,22.3632,1.59298,-2.66414
757.5,22.4462,1.56253,-2.66892
760,22.5288,1.52544,-2.66535
762.5,22.6115,1.51306,-2.66816
765,22.6944,1.4854,-2.66954
767.5,22.7772,1.45865,-2.67323
770,22.8603,1.43123,-2.67518
772.5,22.9431,1.39929,-2.67927
775,23.0261,1.36582,-2.681
777.5,23.109,1.35368,-2.68384
780,23.1918,1.32364,-2.68551
782.5,23.2748,1.27972,-2.68663
785,23.3576,1.23357,-2.68946
787.5,23.4406,1.20651,-2.69109
790,23.5228,1.17338,-2.69321

File: Protective_Hood_STA_N2_30KData_250623_R4.csv
Temp./C,Time/min,DSC/(mW/mg),Mass loss/mg
60.0,0.0,1.21763,-0.0253221
62.5,0.149679,1.42408,-0.0237322
65,0.283336,1.61101,-0.0245848
67.5,0.410591,1.77784,-0.0265435
70,0.5309,1.9383,-0.0259014
72.5,0.645808,2.07163,-0.0323031
75,0.756764,2.20684,-0.0261345
77.5,0.864941,2.33685,-0.0267145
80,0.969131,2.46639,-0.0271595
82.5,1.07184,2.57217,-0.0279365
85,1.17341,2.69035,-0.0304392
87.5,1.27206,2.81962,-0.0300021
90,1.36889,2.9444,-0.0334612
92.5,1.4644,3.05972,-0.0338062
95,1.55896,3.18073,-0.0350291
97.5,1.65261,3.29747,-0.0363763
100,1.74552,3.40343,-0.0382218
102.5,1.83633,3.51767,-0.0408675
105,1.92725,3.60058,-0.0422762
107.5,2.01764,3.67474,-0.0435824
110,2.10683,3.74037,-0.0462877
112.5,2.19548,3.79045,-0.0461966
115,2.28356,3.82888,-0.0475326
117.5,2.37109,3.84804,-0.0488818
120,2.45823,3.86292,-0.0525887
122.5,2.54424,3.8596,-0.0539042
125,2.62888,3.84572,-0.05523
127.5,2.71451,3.83795,-0.0565869
130,2.79879,3.81282,-0.0578602
132.5,2.88291,3.77707,-0.05786
135,2.96588,3.74571,-0.0591747
137.5,3.04842,3.73329,-0.0605906
140,3.1304,3.69647,-0.0618107
142.5,3.2119,3.66684,-0.0618099
145,3.29301,3.65092,-0.0631228
147.5,3.37394,3.62185,-0.0644507
150,3.45422,3.61739,-0.0644888
152.5,3.5348,3.58871,-0.065442
155,3.61371,3.55119,-0.0675234
157.5,3.69417,3.55467,-0.0662071
160,3.77356,3.54459,-0.0655251
162.5,3.85273,3.53679,-0.0642243
165,3.93194,3.529,-0.0668594
167.5,4.01071,3.532,-0.0668607
170,4.08972,3.54159,-0.0681803
172.5,4.16802,3.55812,-0.0681802
175,4.24647,3.58036,-0.0691722
177.5,4.32424,3.59595,-0.0691686
180,4.40245,3.60757,-0.0686439
182.5,4.47983,3.63042,-0.068463
185,4.55713,3.66067,-0.0704903
187.5,4.63426,3.69229,-0.07049
190,4.7108,3.715,-0.07049
192.5,4.78743,3.74791,-0.0704901
195,4.86357,3.79003,-0.0731033
197.5,4.94016,3.8153,-0.0744261
200,5.01617,3.84274,-0.07444
202.5,5.09166,3.87606,-0.0744308
205,5.16803,3.93005,-0.0757668
207.5,5.24365,3.96492,-0.0764756
210,5.31922,4.01413,-0.0769607
212.5,5.39492,4.08337,-0.0783905
215,5.47049,4.18102,-0.0809603
217.5,5.54632,4.35123,-0.0823491
220,5.62227,4.66717,-0.0870119
222.5,5.6999,5.38155,-0.0937675
225,5.78188,7.27819,-0.0925869
227.5,5.86038,8.33473,-0.0957738
230,5.93022,6.76939,-0.098376
232.5,6.00148,5.75682,-0.105231
235,6.07408,5.11468,-0.10984
237.5,6.14673,4.72235,-0.114079
240,6.22056,4.48523,-0.120271
242.5,6.29406,4.33869,-0.128816
245,6.36853,4.2631,-0.136049
247.5,6.44235,4.20971,-0.145367
250,6.51646,4.17449,-0.157834
252.5,6.5908,4.16882,-0.170402
255,6.66503,4.20365,-0.182336
257.5,6.73933,4.35644,-0.194244
260,6.81475,4.75276,-0.214143
262.5,6.89245,5.678,-0.23894
265,6.97242,7.37906,-0.273958
267.5,7.0546,9.64666,-0.322322
270,7.13683,11.9115,-0.386832
272.5,7.21765,13.8571,-0.468841
275,7.29761,15.381,-0.572866
277.5,7.37538,16.3909,-0.696952
280,7.45133,16.7975,-0.841359
282.5,7.52414,16.3605,-0.99994
285,7.59349,15.0051,-1.16187
287.5,7.65985,12.7479,-1.30241
290,7.7238,9.72714,-1.43409
292.5,7.78718,6.58486,-1.54155
295,7.8531,4.09975,-1.62501
297.5,7.92165,2.57368,-1.6817
300,7.9917,1.76202,-1.71834
302.5,8.06459,1.3397,-1.74544
305,8.13757,1.14243,-1.76566
307.5,8.21129,1.03669,-1.78239
310,8.28482,0.987232,-1.79855
312.5,8.35899,0.938483,-1.81525
315,8.43284,0.903646,-1.82726
317.5,8.50714,0.86808,-1.84083
320,8.58132,0.829327,-1.85316
322.5,8.65527,0.782279,-1.86596
325,8.72965,0.735644,-1.87618
327.5,8.80393,0.688518,-1.88778
330,8.87804,0.627546,-1.89836
332.5,8.95239,0.580276,-1.91233
335,9.02658,0.532675,-1.92412
337.5,9.10142,0.491304,-1.93478
340,9.17572,0.448098,-1.94661
342.5,9.2504,0.418273,-1.95918
345,9.32544,0.37584,-1.9718
347.5,9.40001,0.343884,-1.98255
350,9.47507,0.306527,-1.99451
352.5,9.54982,0.28863,-2.00698
355,9.62477,0.27487,-2.0175
357.5,9.70005,0.276574,-2.0269
360,9.7752,0.277393,-2.03786
362.5,9.85061,0.320534,-2.04815
365,9.92615,0.34795,-2.05819
367.5,10.0016,0.392737,-2.0698
370,10.0775,0.444132,-2.0762
372.5,10.1528,0.494101,-2.08716
375,10.2289,0.549628,-2.09494
377.5,10.3051,0.595937,-2.10527
380,10.3812,0.653564,-2.11216
382.5,10.4571,0.722611,-2.12066
385,10.5331,0.762556,-2.12721
387.5,10.6093,0.813832,-2.13421
390,10.6856,0.849849,-2.14202
392.5,10.7619,0.88787,-2.15025
395,10.8382,0.922226,-2.15364
397.5,10.9149,0.962691,-2.1621
400,10.9915,0.985144,-2.16929
402.5,11.0682,1.01832,-2.17296
405,11.1443,1.03961,-2.18017
407.5,11.2215,1.06259,-2.18593
410,11.2985,1.07759,-2.19182
412.5,11.3751,1.11307,-2.1961
415,11.4518,1.1197,-2.20121
417.5,11.529,1.13613,-2.20739
420,11.6059,1.15137,-2.21249
422.5,11.683,1.16733,-2.21872
425,11.7601,1.1763,-2.22272
427.5,11.8374,1.1821,-2.22745
430,11.9146,1.18315,-2.23323
432.5,11.9919,1.19413,-2.23862
435,12.0694,1.20391,-2.24374
437.5,12.1466,1.21233,-2.24892
440,12.2243,1.21648,-2.25642
442.5,12.3017,1.22709,-2.26236
445,12.3793,1.23944,-2.2633
447.5,12.4569,1.24905,-2.26922
450,12.5348,1.2647,-2.27413
452.5,12.6124,1.28438,-2.28028
455,12.6906,1.30277,-2.28522
457.5,12.7686,1.32526,-2.29324
460,12.8467,1.35512,-2.29506
462.5,12.9246,1.37052,-2.30022
465,13.0027,1.40897,-2.30558
467.5,13.0812,1.434,-2.30994
470,13.1591,1.46599,-2.31553
472.5,13.2375,1.49889,-2.32074
475,13.3161,1.53443,-2.32822
477.5,13.3947,1.56913,-2.33397
480,13.4735,1.59433,-2.3392
482.5,13.5515,1.6177,-2.34492
485,13.6307,1.63715,-2.34926
487.5,13.7094,1.65912,-2.35523
490,13.7883,1.68661,-2.35959
492.5,13.8671,1.69938,-2.36624
495,13.946,1.71152,-2.37089
497.5,14.0249,1.69059,-2.37611
500,14.1039,1.6807,-2.38389
502.5,14.1829,1.67089,-2.39016
505,14.2617,1.64484,-2.39586
507.5,14.341,1.61207,-2.4006
510,14.42,1.57018,-2.40234
512.5,14.4989,1.53403,-2.40869
515,14.5784,1.47911,-2.41428
517.5,14.6573,1.42416,-2.41836
520,14.7366,1.37688,-2.42187
522.5,14.8158,1.31373,-2.42546
525,14.8947,1.2561,-2.42946
527.5,14.9743,1.21145,-2.43269
530,15.0536,1.17286,-2.43518
532.5,15.1332,1.13178,-2.43722
535,15.2124,1.09671,-2.4405
537.5,15.2924,1.07913,-2.44413
540,15.3723,1.05031,-2.44694
542.5,15.4518,1.03832,-2.44979
545,15.5317,1.02004,-2.45123
547.5,15.6118,1.01878,-2.45385
550,15.6916,1.00769,-2.4559
552.5,15.7716,1.01349,-2.45829
555,15.8514,1.00356,-2.4605
557.5,15.9319,1.0073,-2.46288
560,16.0114,0.998649,-2.46614
562.5,16.0917,1.00049,-2.46994
565,16.1721,1.00022,-2.47126
567.5,16.2523,1.00087,-2.47146
570,16.3326,1.01437,-2.47421
572.5,16.4127,1.00878,-2.47593
575,16.493,1.01036,-2.47745
577.5,16.5733,1.01556,-2.47912
580,16.6538,1.01467,-2.48114
582.5,16.7336,1.01456,-2.48409
585,16.8147,1.03033,-2.48417
587.5,16.8953,1.04177,-2.4848
590,16.9756,1.05157,-2.48549
592.5,17.0566,1.04331,-2.48834
595,17.137,1.06368,-2.48962
597.5,17.2179,1.05949,-2.49103
600,17.2986,1.0673,-2.49259
602.5,17.3793,1.07016,-2.49563
605,17.4604,1.08095,-2.498
607.5,17.5412,1.0835,-2.50032
610,17.6222,1.08765,-2.50312
612.5,17.7031,1.10183,-2.50449
615,17.7844,1.10887,-2.50523
617.5,17.8656,1.11581,-2.50656
620,17.9466,1.12917,-2.50831
622.5,18.0282,1.14031,-2.51063
625,18.1094,1.14684,-2.5097
627.5,18.1909,1.17212,-2.51238
630,18.2725,1.18264,-2.51438
632.5,18.3535,1.1987,-2.51684
635,18.4347,1.21909,-2.51762
637.5,18.5165,1.23613,-2.5203
640,18.5979,1.23852,-2.52025
642.5,18.6795,1.2631,-2.52164
645,18.7611,1.27925,-2.52429
647.5,18.8427,1.30048,-2.52555
650,18.9244,1.31263,-2.52687
652.5,19.0063,1.34347,-2.52951
655,19.0876,1.37361,-2.53098
657.5,19.1694,1.39901,-2.53234
660,19.2512,1.41772,-2.53479
662.5,19.3329,1.43387,-2.53785
665,19.4146,1.43299,-2.53919
667.5,19.4965,1.46654,-2.54048
670,19.5784,1.46777,-2.54176
672.5,19.6601,1.50499,-2.54181
675,19.742,1.51556,-2.54452
677.5,19.824,1.5517,-2.54609
680,19.9058,1.57019,-2.54976
682.5,19.9878,1.58141,-2.55024
685,20.0698,1.60734,-2.55149
687.5,20.1518,1.65008,-2.5552
690,20.2337,1.66123,-2.55715
692.5,20.3157,1.68444,-2.55802
695,20.3975,1.70754,-2.55851
697.5,20.4796,1.72531,-2.55979
700,20.5618,1.74984,-2.56275
702.5,20.6434,1.76197,-2.56411
705,20.726,1.77769,-2.56544
707.5,20.8084,1.78971,-2.56882
710,20.8905,1.79851,-2.57101
712.5,20.9725,1.83034,-2.57483
715,21.0551,1.84949,-2.57494
717.5,21.1374,1.86755,-2.57647
720,21.2198,1.88775,-2.57899
722.5,21.3025,1.9145,-2.58175
725,21.3847,1.92582,-2.58451
727.5,21.4672,1.9472,-2.5843
730,21.55,1.96897,-2.58585
732.5,21.6325,1.97508,-2.58873
735,21.7155,2.00271,-2.59166
737.5,21.7981,1.99919,-2.59304
740,21.8807,1.99995,-2.59577
742.5,21.9633,2.00577,-2.59849
745,22.0462,2.00456,-2.60062
747.5,22.1288,2.00444,-2.60287
750,22.211,1.99441,-2.60412
752.5,22.2942,1.98793,-2.60666
755,22.3771,1.97451,-2.60883
757.5,22.46,1.95492,-2.61142
760,22.5428,1.91684,-2.61433
762.5,22.6257,1.9003,-2.61569
765,22.7082,1.86118,-2.61854
767.5,22.7912,1.80156,-2.62146
770,22.874,1.68844,-2.62481
772.5,22.9566,1.58482,-2.62502
775,23.0398,1.49114,-2.62635
777.5,23.1226,1.40724,-2.62903
780,23.2052,1.33584,-2.63182
782.5,23.2884,1.27421,-2.63302
785,23.3712,1.20245,-2.63622
787.5,23.4538,1.144,-2.63754
790,23.5368,1.09296,-2.63973