Folder: fsri_materials_database/01_Data/Protective_Hood/STA/N2/30K_min (part 3)

File: Protective_Hood_STA_N2_30KData_250625_R5.csv
Temp./C,Time/min,DSC/(mW/mg),Mass loss/mg
60.0,0.0,1.23672,-0.0183545
62.5,0.147958,1.44647,-0.0197488
65,0.283664,1.62179,-0.0192398
67.5,0.409378,1.78078,-0.0193586
70,0.528726,1.92391,-0.0193821
72.5,0.643194,2.04229,-0.0254496
75,0.754333,2.17214,-0.026112
77.5,0.86173,2.28827,-0.0245364
80,0.967105,2.3974,-0.0259239
82.5,1.06955,2.50904,-0.0256267
85,1.16996,2.62949,-0.0292535
87.5,1.2698,2.75898,-0.0283924
90,1.36533,2.85828,-0.0302124
92.5,1.46231,2.98567,-0.0302212
95,1.55659,3.09609,-0.033234
97.5,1.65004,3.21575,-0.0366636
100,1.74221,3.321,-0.037299
102.5,1.83328,3.4246,-0.0374635
105,1.92405,3.51841,-0.0400781
107.5,2.01412,3.59871,-0.0400869
110,2.10339,3.67437,-0.0426956
112.5,2.19206,3.72501,-0.0447945
115,2.28048,3.7672,-0.0495877
117.5,2.36773,3.79203,-0.0483402
120,2.4549,3.7981,-0.0496066
122.5,2.54089,3.8031,-0.0516071
125,2.62669,3.79507,-0.0569663
127.5,2.71058,3.75876,-0.0539102
130,2.79625,3.7398,-0.0551334
132.5,2.87954,3.71588,-0.0534413
135,2.96282,3.67031,-0.0563781
137.5,3.04585,3.61803,-0.0608781
140,3.12764,3.59928,-0.0622431
142.5,3.20958,3.55823,-0.06345
145,3.29047,3.54118,-0.0633808
147.5,3.37169,3.50667,-0.0634503
150,3.45212,3.47439,-0.0634504
152.5,3.53242,3.43332,-0.0647704
155,3.61193,3.41432,-0.0648739
157.5,3.69156,3.39617,-0.0647805
160,3.77094,3.38357,-0.0654394
162.5,3.85003,3.37817,-0.06544
165,3.92878,3.37516,-0.06544
167.5,4.00772,3.364,-0.065457
170,4.08608,3.37064,-0.0661048
172.5,4.16428,3.3712,-0.0681617
175,4.24194,3.37878,-0.0680931
177.5,4.31986,3.4048,-0.0674042
180,4.3972,3.40861,-0.06674
182.5,4.47445,3.43337,-0.0668905
185,4.55164,3.45906,-0.0667519
187.5,4.62785,3.46824,-0.0680601
190,4.70465,3.49681,-0.0682569
192.5,4.78073,3.51529,-0.0687192
195,4.85706,3.53837,-0.0692148
197.5,4.93283,3.57297,-0.0678607
200,5.00873,3.60491,-0.0727571
202.5,5.08438,3.63336,-0.0727319
205,5.16013,3.66155,-0.0731194
207.5,5.23536,3.70107,-0.0759458
210,5.31075,3.73063,-0.0740004
212.5,5.3863,3.8049,-0.0764911
215,5.46203,3.89794,-0.077139
217.5,5.53756,4.05503,-0.0793689
220,5.61347,4.40191,-0.0795652
222.5,5.69143,5.19788,-0.0825618
225,5.77297,7.03853,-0.0855504
227.5,5.8506,7.96043,-0.0905828
230,5.92043,6.41737,-0.092648
232.5,5.99169,5.43372,-0.0974742
235,6.06362,4.78747,-0.10096
237.5,6.13703,4.38759,-0.105564
240,6.20994,4.15957,-0.112084
242.5,6.28426,4.01662,-0.121411
245,6.35823,3.92436,-0.125097
247.5,6.43216,3.86924,-0.132474
250,6.50606,3.84063,-0.141072
252.5,6.58077,3.82763,-0.151304
255,6.65471,3.84328,-0.162296
257.5,6.72899,3.98633,-0.177702
260,6.80479,4.39717,-0.196761
262.5,6.8826,5.40136,-0.220822
265,6.96244,7.19384,-0.251254
267.5,7.04492,9.56945,-0.299471
270,7.12711,11.8661,-0.363733
272.5,7.20847,13.8478,-0.44881
275,7.28862,15.3708,-0.556288
277.5,7.36651,16.3502,-0.68588
280,7.44128,16.648,-0.833779
282.5,7.5136,16.0018,-0.996181
285,7.58226,14.3841,-1.16058
287.5,7.64748,11.8048,-1.31079
290,7.71044,8.51256,-1.43415
292.5,7.7742,5.24616,-1.54653
295,7.83996,2.97492,-1.62269
297.5,7.90934,1.70215,-1.67319
300,7.9806,1.07377,-1.7114
302.5,8.05326,0.797979,-1.73181
305,8.1268,0.676625,-1.75183
307.5,8.2005,0.624581,-1.77001
310,8.27467,0.601664,-1.7854
312.5,8.34863,0.585615,-1.79746
315,8.42255,0.576218,-1.81141
317.5,8.49691,0.523849,-1.82541
320,8.57126,0.490443,-1.83702
322.5,8.64533,0.457989,-1.84711
325,8.71947,0.427989,-1.85966
327.5,8.79361,0.388786,-1.87136
330,8.86799,0.349867,-1.88251
332.5,8.94231,0.294266,-1.89437
335,9.01657,0.246451,-1.90613
337.5,9.09147,0.215185,-1.91818
340,9.16599,0.180273,-1.92862
342.5,9.24054,0.124395,-1.93828
345,9.31513,0.0884539,-1.95501
347.5,9.38969,0.0636165,-1.96454
350,9.46483,0.0337596,-1.97636
352.5,9.5394,0.0250911,-1.98568
355,9.61464,0.00117441,-1.99634
357.5,9.6898,0.0310954,-2.00717
360,9.76466,0.0606592,-2.01737
362.5,9.84058,0.0923911,-2.02776
365,9.91625,0.13528,-2.03757
367.5,9.99136,0.182961,-2.04703
370,10.0668,0.222413,-2.05554
372.5,10.143,0.268547,-2.0634
375,10.2187,0.335857,-2.07326
377.5,10.2947,0.389808,-2.08043
380,10.3706,0.462368,-2.09032
382.5,10.4467,0.50783,-2.09504
385,10.5228,0.550659,-2.10187
387.5,10.599,0.603787,-2.10868
390,10.6752,0.658067,-2.11453
392.5,10.7515,0.69929,-2.12094
395,10.8276,0.734877,-2.12682
397.5,10.9042,0.76708,-2.13321
400,10.9805,0.796993,-2.13776
402.5,11.0574,0.825625,-2.14452
405,11.1332,0.848523,-2.1503
407.5,11.2104,0.863661,-2.1557
410,11.287,0.878514,-2.16029
412.5,11.3638,0.899471,-2.1648
415,11.4409,0.919636,-2.16884
417.5,11.5176,0.940238,-2.17414
420,11.5947,0.949256,-2.18001
422.5,11.6715,0.938245,-2.18466
425,11.7485,0.969616,-2.18929
427.5,11.8257,0.979201,-2.19236
430,11.9027,0.995713,-2.19292
432.5,11.9801,1.00352,-2.20386
435,12.0576,1.00737,-2.20859
437.5,12.1349,1.02053,-2.21312
440,12.2123,1.03244,-2.21753
442.5,12.2899,1.04843,-2.22276
445,12.3676,1.05233,-2.2257
447.5,12.4452,1.06773,-2.2309
450,12.5229,1.09565,-2.2359
452.5,12.601,1.10544,-2.23918
455,12.6788,1.12388,-2.24481
457.5,12.7567,1.14047,-2.24901
460,12.8348,1.18133,-2.25437
462.5,12.9132,1.20999,-2.25929
465,12.9912,1.23738,-2.26466
467.5,13.0697,1.27948,-2.26835
470,13.1481,1.31531,-2.27106
472.5,13.2262,1.35184,-2.28121
475,13.3051,1.38623,-2.28676
477.5,13.3835,1.43454,-2.29293
480,13.462,1.46815,-2.29904
482.5,13.5407,1.50358,-2.30396
485,13.6193,1.53149,-2.3076
487.5,13.6986,1.56822,-2.31229
490,13.7773,1.597,-2.31822
492.5,13.856,1.62434,-2.32534
495,13.935,1.63644,-2.32926
497.5,14.014,1.63405,-2.33467
500,14.092,1.64019,-2.3393
502.5,14.1716,1.6381,-2.34435
505,14.2507,1.62827,-2.34911
507.5,14.3298,1.60493,-2.35731
510,14.409,1.57087,-2.36198
512.5,14.488,1.52569,-2.36538
515,14.5669,1.48098,-2.36964
517.5,14.6464,1.4298,-2.3745
520,14.7254,1.37734,-2.37833
522.5,14.805,1.33149,-2.38326
525,14.8842,1.27207,-2.38506
527.5,14.9634,1.22632,-2.3911
530,15.0433,1.19098,-2.39364
532.5,15.1224,1.15488,-2.39227
535,15.2022,1.12957,-2.39442
537.5,15.2818,1.10075,-2.39875
540,15.3613,1.07175,-2.40146
542.5,15.4413,1.04225,-2.40013
545,15.5211,1.0238,-2.40886
547.5,15.6009,1.04877,-2.4117
550,15.6807,1.0303,-2.41446
552.5,15.7608,1.02516,-2.41424
555,15.8405,1.01805,-2.41586
557.5,15.9204,1.02351,-2.41574
560,16.0005,1.02112,-2.41976
562.5,16.0805,1.0292,-2.42231
565,16.1605,1.02698,-2.42457
567.5,16.2405,1.043,-2.42759
570,16.3207,1.04367,-2.42755
572.5,16.4009,1.05641,-2.42759
575,16.4813,1.07272,-2.43148
577.5,16.5618,1.07999,-2.43425
580,16.642,1.08906,-2.4342
582.5,16.7224,1.09988,-2.43597
585,16.8031,1.11913,-2.43907
587.5,16.8834,1.12137,-2.44176
590,16.9641,1.13509,-2.44312
592.5,17.0439,1.15065,-2.44433
595,17.1253,1.17098,-2.44602
597.5,17.2064,1.18581,-2.44867
600,17.2869,1.19245,-2.4507
602.5,17.368,1.21619,-2.45107
605,17.4486,1.22904,-2.45312
607.5,17.5297,1.24339,-2.45507
610,17.6107,1.26194,-2.45638
612.5,17.6917,1.2857,-2.45761
615,17.7731,1.31692,-2.46044
617.5,17.8543,1.33017,-2.46146
620,17.9352,1.36794,-2.46389
622.5,18.0167,1.39031,-2.46452
625,18.0976,1.4148,-2.46585
627.5,18.1791,1.44348,-2.46719
630,18.2605,1.48377,-2.46962
632.5,18.3421,1.51896,-2.47001
635,18.4234,1.55222,-2.47274
637.5,18.5051,1.59085,-2.47406
640,18.5866,1.62527,-2.4767
642.5,18.6683,1.65286,-2.47795
645,18.7499,1.69407,-2.48057
647.5,18.8318,1.72922,-2.4814
650,18.9135,1.75491,-2.48263
652.5,18.9951,1.79146,-2.48271
655,19.0773,1.82113,-2.4847
657.5,19.1593,1.85639,-2.48744
660,19.2412,1.89444,-2.48833
662.5,19.3229,1.92916,-2.48983
665,19.4044,1.967,-2.49192
667.5,19.4867,1.99247,-2.49328
670,19.5687,2.01908,-2.49605
672.5,19.6509,2.04839,-2.49869
675,19.7328,2.08199,-2.5
677.5,19.8149,2.12218,-2.50159
680,19.8969,2.14078,-2.50393
682.5,19.9791,2.17288,-2.50526
685,20.0613,2.21222,-2.5076
687.5,20.1431,2.22548,-2.50783
690,20.2254,2.2509,-2.50919
692.5,20.3076,2.27479,-2.51191
695,20.3895,2.28811,-2.51476
697.5,20.472,2.30771,-2.51752
700,20.5542,2.33077,-2.51753
702.5,20.6364,2.34163,-2.51928
705,20.7184,2.35973,-2.52087
707.5,20.8009,2.35801,-2.52347
710,20.8825,2.34139,-2.52478
712.5,20.9654,2.32426,-2.52709
715,21.048,2.31927,-2.52825
717.5,21.1304,2.29983,-2.52972
720,21.213,2.25778,-2.53239
722.5,21.2954,2.24005,-2.53268
725,21.3777,2.20869,-2.5341
727.5,21.4599,2.19332,-2.53717
730,21.5428,2.17046,-2.54036
732.5,21.6255,2.16066,-2.54367
735,21.7076,2.15801,-2.54555
737.5,21.7911,2.14391,-2.54649
740,21.8735,2.13449,-2.54929
742.5,21.9563,2.11189,-2.54934
745,22.0389,2.09462,-2.5526
747.5,22.1212,2.07329,-2.55463
750,22.2044,2.02438,-2.55727
752.5,22.2866,1.9976,-2.559
755,22.3691,1.95069,-2.56069
757.5,22.4519,1.90753,-2.56179
760,22.5345,1.87725,-2.56512
762.5,22.6174,1.82111,-2.56792
765,22.7003,1.78234,-2.57013
767.5,22.7827,1.73722,-2.5743
770,22.8661,1.69618,-2.57674
772.5,22.9485,1.65032,-2.57708
775,23.0313,1.60148,-2.57957
777.5,23.1142,1.56061,-2.58254
780,23.1968,1.51373,-2.58451
782.5,23.2801,1.48857,-2.5855
785,23.3629,1.45061,-2.58824
787.5,23.4452,1.41829,-2.59043
790,23.5289,1.3998,-2.59112