Folder: fsri_materials_database/01_Data/Protective_Hood/STA/N2/30K_min

File: Protective_Hood_STA_N2_30KData_240318_R1.csv
Temp./C,Time/min,DSC/(mW/mg),Mass loss/mg
60.0,0.0,1.40241,-0.0225303
62.3,0.113944,1.60033,-0.0208636
64.6,0.219616,1.77776,-0.0215273
66.9,0.319064,1.93589,-0.0220103
69.2,0.414373,2.07656,-0.0229226
71.5,0.505375,2.20178,-0.0249028
73.8,0.594334,2.32406,-0.022748
76.1,0.681694,2.43199,-0.0216258
78.4,0.76563,2.53303,-0.0250084
80.7,0.850349,2.61324,-0.0274188
83,0.932496,2.69936,-0.0279037
85.3,1.01411,2.78934,-0.0259058
87.6,1.0946,2.85848,-0.0257875
89.9,1.17463,2.93576,-0.0259087
92.2,1.25361,3.00216,-0.02591
94.5,1.33195,3.04558,-0.0282764
96.8,1.40953,3.09972,-0.0290882
99.1,1.487,3.12968,-0.0290278
101.4,1.56308,3.15899,-0.0286844
103.7,1.64065,3.17796,-0.030656
106,1.71684,3.19529,-0.0320637
108.3,1.79327,3.18548,-0.033971
110.6,1.8694,3.16439,-0.0333696
112.9,1.94517,3.15163,-0.0346904
115.2,2.02071,3.12963,-0.036006
117.5,2.09639,3.11456,-0.0373298
119.8,2.17187,3.09661,-0.0360131
122.1,2.24699,3.06743,-0.0332323
124.4,2.32245,3.04177,-0.03469
126.7,2.39711,3.02369,-0.03469
129,2.47174,3.01545,-0.03469
131.3,2.54582,2.99218,-0.036061
133.6,2.62038,2.98306,-0.0360057
135.9,2.69427,2.98484,-0.0350202
138.2,2.76806,2.98201,-0.0350196
140.5,2.84136,2.98258,-0.0363451
142.8,2.9153,2.99161,-0.0376499
145.1,2.98805,3.00016,-0.0361016
147.4,3.06117,3.02307,-0.0348001
149.7,3.13398,3.03976,-0.0362203
152,3.20666,3.05177,-0.0375117
154.3,3.27932,3.0601,-0.038759
156.6,3.352,3.09497,-0.03875
158.9,3.42442,3.10834,-0.0390914
161.2,3.49597,3.12144,-0.04007
163.5,3.56862,3.15254,-0.0405297
165.8,3.64053,3.17274,-0.0427
168.1,3.71245,3.18892,-0.039764
170.4,3.78409,3.21184,-0.0385578
172.7,3.85652,3.2343,-0.0385332
175,3.92805,3.25604,-0.0398496
177.3,3.99937,3.26428,-0.0411772
179.6,4.071,3.29168,-0.0411698
181.9,4.14119,3.31367,-0.0398581
184.2,4.21303,3.33877,-0.03919
186.5,4.28402,3.35803,-0.0391904
188.8,4.35402,3.38679,-0.0404924
191.1,4.42525,3.41001,-0.0431506
193.4,4.4959,3.42924,-0.0427841
195.7,4.56546,3.46366,-0.04216
198,4.63701,3.48302,-0.0421345
200.3,4.70686,3.5115,-0.0434578
202.6,4.77717,3.54435,-0.0432028
204.9,4.8477,3.5715,-0.0421443
207.2,4.91773,3.60096,-0.0447621
209.5,4.98795,3.63152,-0.0460053
211.8,5.05782,3.67853,-0.0491128
214.1,5.1283,3.73261,-0.0527167
216.4,5.19812,3.8056,-0.0552817
218.7,5.2685,3.93056,-0.0583333
221,5.33928,4.2018,-0.0604054
223.3,5.41093,4.79817,-0.0640204
225.6,5.48445,5.81826,-0.0696436
227.9,5.55403,5.77229,-0.0738078
230.2,5.62188,5.1861,-0.0810489
232.5,5.68987,4.71563,-0.0858901
234.8,5.75829,4.34565,-0.0908967
237.1,5.82706,4.09156,-0.0983564
239.4,5.89601,3.90285,-0.10239
241.7,5.96424,3.79224,-0.107994
244,6.03386,3.71035,-0.118747
246.3,6.10295,3.64729,-0.12849
248.6,6.17233,3.59748,-0.13844
250.9,6.24054,3.5553,-0.151148
253.2,6.31084,3.5219,-0.16031
255.5,6.37955,3.4776,-0.172579
257.8,6.4487,3.44762,-0.18806
260.1,6.51842,3.44101,-0.2018
262.4,6.58819,3.47541,-0.218603
264.7,6.6582,3.63445,-0.237097
267,6.72791,3.99633,-0.255519
269.3,6.80043,4.7165,-0.277757
271.6,6.87325,5.81028,-0.303233
273.9,6.94742,7.13629,-0.338009
276.2,7.02105,8.41683,-0.383884
278.5,7.09506,9.50265,-0.438244
280.8,7.1677,10.336,-0.498939
283.1,7.23985,10.9875,-0.565397
285.4,7.31158,11.5154,-0.638901
287.7,7.3825,11.8628,-0.716622
290,7.45285,11.9962,-0.796783
292.3,7.52208,11.7612,-0.873386
294.6,7.58908,10.9831,-0.955072
296.9,7.65406,9.57174,-1.02932
299.2,7.71742,7.72405,-1.08787
301.5,7.78063,5.91013,-1.13438
303.8,7.84548,4.47446,-1.16563
306.1,7.91064,3.49843,-1.18236
308.4,7.9779,2.87012,-1.19773
310.7,8.04543,2.4639,-1.21438
313,8.11328,2.21719,-1.22146
315.3,8.18144,2.0485,-1.22787
317.6,8.25096,1.92509,-1.2369
319.9,8.32016,1.84299,-1.24265
322.2,8.38922,1.76592,-1.25031
324.5,8.45871,1.71799,-1.2587
326.8,8.52803,1.65848,-1.26653
329.1,8.59738,1.62009,-1.27399
331.4,8.66722,1.57648,-1.2794
333.7,8.73694,1.56251,-1.28556
336,8.80629,1.53424,-1.29511
338.3,8.87603,1.50066,-1.30288
340.6,8.94603,1.48011,-1.30615
342.9,9.01628,1.4567,-1.31077
345.2,9.08684,1.42881,-1.3175
347.5,9.15561,1.40319,-1.32532
349.8,9.22636,1.38159,-1.33023
352.1,9.29689,1.35687,-1.33477
354.4,9.36694,1.34619,-1.34131
356.7,9.43745,1.32608,-1.34681
359,9.50878,1.32628,-1.35328
361.3,9.57948,1.31444,-1.36141
363.6,9.65003,1.32072,-1.36621
365.9,9.72031,1.32338,-1.36954
368.2,9.79144,1.33236,-1.3746
370.5,9.86202,1.34396,-1.37981
372.8,9.93317,1.36693,-1.38676
375.1,10.0044,1.37952,-1.39039
377.4,10.0762,1.40107,-1.39441
379.7,10.1471,1.42472,-1.39855
382,10.2185,1.45111,-1.40229
384.3,10.29,1.47596,-1.40647
386.6,10.3612,1.50238,-1.41332
388.9,10.4328,1.53677,-1.4188
391.2,10.5043,1.55082,-1.42617
393.5,10.5764,1.584,-1.4276
395.8,10.6478,1.61572,-1.43289
398.1,10.7191,1.64407,-1.43442
400.4,10.7911,1.66686,-1.43651
402.7,10.8632,1.69833,-1.43948
405,10.9349,1.72886,-1.44234
407.3,11.0072,1.76126,-1.44621
409.6,11.0792,1.78902,-1.44962
411.9,11.1506,1.819,-1.45475
414.2,11.2235,1.84761,-1.45848
416.5,11.2956,1.87881,-1.46283
418.8,11.3678,1.91881,-1.46883
421.1,11.4405,1.95102,-1.47165
423.4,11.5128,1.98716,-1.47471
425.7,11.5851,2.02453,-1.47496
428,11.6571,2.0556,-1.47789
430.3,11.7302,2.10279,-1.47839
432.6,11.8027,2.12028,-1.48315
434.9,11.8755,2.15543,-1.48637
437.2,11.9479,2.18523,-1.49113
439.5,12.0207,2.21296,-1.49674
441.8,12.0928,2.22956,-1.50164
444.1,12.1658,2.25656,-1.50482
446.4,12.2386,2.27076,-1.50959
448.7,12.3119,2.29163,-1.51457
451,12.3846,2.28776,-1.52094
453.3,12.4577,2.29843,-1.52342
455.6,12.5306,2.29019,-1.52875
457.9,12.6039,2.28612,-1.53232
460.2,12.6764,2.2719,-1.53679
462.5,12.7499,2.24704,-1.53973
464.8,12.823,2.22745,-1.54518
467.1,12.896,2.20405,-1.54918
469.4,12.9689,2.16719,-1.55491
471.7,13.0423,2.14195,-1.5595
474,13.1152,2.11548,-1.56383
476.3,13.1881,2.082,-1.56824
478.6,13.2617,2.05503,-1.57326
480.9,13.3353,2.02474,-1.57746
483.2,13.4085,1.98844,-1.58224
485.5,13.4811,1.96072,-1.58795
487.8,13.5549,1.93579,-1.59412
490.1,13.6286,1.91744,-1.59713
492.4,13.7024,1.88268,-1.60154
494.7,13.7756,1.86073,-1.60878
497,13.8492,1.84014,-1.61702
499.3,13.9229,1.81875,-1.62217
501.6,13.9961,1.80669,-1.63021
503.9,14.0704,1.78781,-1.63375
506.2,14.1442,1.77695,-1.63738
508.5,14.218,1.75973,-1.64442
510.8,14.2916,1.74741,-1.65381
513.1,14.3655,1.74026,-1.6595
515.4,14.4395,1.73004,-1.66687
517.7,14.5133,1.74064,-1.67339
520,14.5873,1.73771,-1.68043
522.3,14.6617,1.7473,-1.68809
524.6,14.7355,1.76082,-1.69759
526.9,14.81,1.76406,-1.70771
529.2,14.8841,1.77313,-1.71736
531.5,14.9585,1.7975,-1.72885
533.8,15.0326,1.81175,-1.73771
536.1,15.1069,1.82551,-1.7482
538.4,15.1814,1.84183,-1.75737
540.7,15.2563,1.86004,-1.7697
543,15.3304,1.86468,-1.78032
545.3,15.405,1.87496,-1.7937
547.6,15.48,1.87957,-1.80639
549.9,15.5546,1.88827,-1.82073
552.2,15.6293,1.88343,-1.83732
554.5,15.7038,1.87857,-1.8491
556.8,15.7788,1.87121,-1.86101
559.1,15.8536,1.8625,-1.87629
561.4,15.9282,1.84064,-1.89003
563.7,16.0033,1.82035,-1.90591
566,16.0781,1.80177,-1.91573
568.3,16.1529,1.784,-1.93092
570.6,16.2283,1.76065,-1.94523
572.9,16.3034,1.74087,-1.95734
575.2,16.3782,1.71263,-1.97025
577.5,16.4534,1.69242,-1.98488
579.8,16.5288,1.66538,-1.9989
582.1,16.6039,1.63684,-2.01163
584.4,16.6789,1.60819,-2.02523
586.7,16.7542,1.59047,-2.03755
589,16.8299,1.55686,-2.05238
591.3,16.9046,1.53501,-2.06528
593.6,16.9804,1.51155,-2.07829
595.9,17.0558,1.48144,-2.09032
598.2,17.1312,1.46123,-2.10148
600.5,17.2063,1.43213,-2.11661
602.8,17.282,1.40897,-2.12993
605.1,17.3573,1.39843,-2.14057
607.4,17.433,1.37568,-2.15195
609.7,17.5083,1.34989,-2.16217
612,17.5837,1.32419,-2.17342
614.3,17.6591,1.30809,-2.18705
616.6,17.7344,1.28922,-2.19955
618.9,17.8102,1.26687,-2.20895
621.2,17.8857,1.25324,-2.21977
623.5,17.9613,1.2269,-2.23091
625.8,18.0368,1.23522,-2.23945
628.1,18.1123,1.21782,-2.24843
630.4,18.1878,1.20467,-2.25454
632.7,18.2634,1.19095,-2.26276
635,18.3391,1.16651,-2.27201
637.3,18.4151,1.15285,-2.28103
639.6,18.4908,1.13783,-2.29041
641.9,18.5656,1.14228,-2.29702
644.2,18.6419,1.12882,-2.3015
646.5,18.7177,1.11722,-2.30866
648.8,18.7934,1.1088,-2.31961
651.1,18.8693,1.09877,-2.32497
653.4,18.945,1.09042,-2.33099
655.7,19.021,1.08343,-2.33589
658,19.0967,1.08436,-2.34093
660.3,19.1729,1.07918,-2.34682
662.6,19.249,1.07267,-2.35123
664.9,19.3247,1.08376,-2.35424
667.2,19.4009,1.0723,-2.35656
669.5,19.477,1.07303,-2.36075
671.8,19.5523,1.06767,-2.3649
674.1,19.629,1.07001,-2.36898
676.4,19.7052,1.06775,-2.36976
678.7,19.7812,1.0569,-2.37309
681,19.8574,1.05894,-2.37718
683.3,19.9334,1.05243,-2.37987
685.6,20.0095,1.04147,-2.38482
687.9,20.0859,1.03448,-2.38966
690.2,20.1621,1.03598,-2.39267
692.5,20.2386,1.02957,-2.3966
694.8,20.3145,1.02172,-2.40095
697.1,20.3908,1.00708,-2.40577
699.4,20.4673,1.00395,-2.40647
701.7,20.5436,0.986602,-2.40722
704,20.6195,0.97737,-2.40858
706.3,20.6961,0.967602,-2.41126
708.6,20.7728,0.960742,-2.41378
710.9,20.8492,0.945183,-2.41633
713.2,20.926,0.928805,-2.42092
715.5,21.0027,0.913422,-2.42272
717.8,21.0794,0.890394,-2.427
720.1,21.1561,0.876967,-2.42873
722.4,21.2327,0.854377,-2.42868
724.7,21.3092,0.76895,-2.43148
727,21.3858,0.758762,-2.43421
729.3,21.4624,0.736646,-2.43661
731.6,21.5398,0.715442,-2.43675
733.9,21.6166,0.686844,-2.43674
736.2,21.6933,0.662656,-2.43807
738.5,21.7702,0.638246,-2.441
740,21.8206,0.620458,-2.44305

File: Protective_Hood_STA_N2_30KData_240318_R2.csv
Temp./C,Time/min,DSC/(mW/mg),Mass loss/mg
60.0,0.0,1.59398,-0.0113896
62.5,0.124579,1.81869,-0.0158747
65,0.238426,2.01906,-0.0166802
67.5,0.345305,2.21819,-0.0131386
70,0.447423,2.37653,-0.0137344
72.5,0.545935,2.52737,-0.0111183
75,0.641302,2.66073,-0.0132743
77.5,0.734694,2.77394,-0.0141951
80,0.825431,2.88068,-0.0171177
82.5,0.916173,2.97455,-0.0158916
85,1.00528,3.07584,-0.0173368
87.5,1.09259,3.16117,-0.0178251
90,1.1791,3.23995,-0.0189788
92.5,1.2647,3.3175,-0.0186108
95,1.34919,3.38042,-0.0180187
97.5,1.43377,3.42807,-0.0179174
100,1.51733,3.49279,-0.0192866
102.5,1.60076,3.51423,-0.0191944
105,1.68351,3.54563,-0.0183389
107.5,1.76578,3.54272,-0.0196788
110,1.84877,3.54892,-0.0224439
112.5,1.9309,3.54013,-0.0249207
115,2.01373,3.53815,-0.0250014
117.5,2.09673,3.51588,-0.0237095
120,2.17874,3.51282,-0.0223876
122.5,2.26054,3.48409,-0.0223903
125,2.3421,3.48483,-0.0210718
127.5,2.42382,3.46819,-0.0210692
130,2.50501,3.46187,-0.022395
132.5,2.58596,3.47456,-0.0210807
135,2.66658,3.48214,-0.0233009
137.5,2.74712,3.48409,-0.02371
140,2.82715,3.50396,-0.0224014
142.5,2.9069,3.54128,-0.0222804
145,2.98664,3.56281,-0.0211981
147.5,3.06616,3.58808,-0.0210453
150,3.14501,3.62865,-0.0224124
152.5,3.22515,3.65519,-0.0235366
155,3.30375,3.69247,-0.0217977
157.5,3.38291,3.7295,-0.0210765
160,3.46139,3.75004,-0.0203305
162.5,3.53976,3.7832,-0.0210296
165,3.61774,3.80869,-0.0224001
167.5,3.69657,3.83477,-0.0250119
170,3.77396,3.86065,-0.0237319
172.5,3.852,3.89366,-0.021734
175,3.92964,3.92225,-0.0244249
177.5,4.00767,3.94636,-0.02306
180,4.08566,3.97669,-0.0230715
182.5,4.1629,4.01339,-0.0236624
185,4.24012,4.04528,-0.0230437
187.5,4.31694,4.08076,-0.02306
190,4.394,4.11565,-0.02306
192.5,4.47043,4.15936,-0.0237183
195,4.54694,4.20555,-0.0250296
197.5,4.62321,4.25404,-0.0250292
200,4.69987,4.29838,-0.0254529
202.5,4.77548,4.36748,-0.02536
205,4.8528,4.44081,-0.027569
207.5,4.92911,4.5171,-0.0294904
210,5.00578,4.61262,-0.0282712
212.5,5.08166,4.7211,-0.029636
215,5.15816,4.84855,-0.0310258
217.5,5.23464,4.98486,-0.0341342
220,5.31089,5.12739,-0.0360668
222.5,5.38701,5.10134,-0.0384824
225,5.46223,4.98253,-0.0405266
227.5,5.53773,4.90232,-0.044046
230,5.61274,4.72708,-0.0480138
232.5,5.68767,4.56398,-0.0526001
235,5.76266,4.44815,-0.056611
237.5,5.83801,4.37055,-0.0630437
240,5.9136,4.3185,-0.0686355
242.5,5.98898,4.27444,-0.0736922
245,6.06402,4.23768,-0.0798617
247.5,6.13948,4.19041,-0.0862952
250,6.21466,4.14023,-0.0935589
252.5,6.28958,4.07337,-0.10178
255,6.36478,3.99431,-0.107999
257.5,6.43968,3.91433,-0.116549
260,6.51477,3.82014,-0.127551
262.5,6.58996,3.7318,-0.138385
265,6.66537,3.68191,-0.149041
267.5,6.74023,3.66364,-0.161621
270,6.81582,3.74366,-0.17732
272.5,6.89165,3.98318,-0.196799
275,6.96876,4.46814,-0.21951
277.5,7.0464,5.2679,-0.248856
280,7.12675,6.41374,-0.283814
282.5,7.20695,7.708,-0.333567
285,7.2867,8.87211,-0.39291
287.5,7.36517,9.71757,-0.472008
290,7.44338,10.2352,-0.562432
292.5,7.51973,10.3987,-0.660373
295,7.5946,10.0736,-0.764965
297.5,7.66591,8.79925,-0.866719
300,7.73388,6.64657,-0.958681
302.5,7.80435,4.94608,-1.02403
305,7.87664,4.09846,-1.06043
307.5,7.95071,3.66386,-1.07801
310,8.02532,3.43577,-1.08938
312.5,8.09968,3.30647,-1.09902
315,8.1756,3.24244,-1.10908
317.5,8.25093,3.20088,-1.11707
320,8.32666,3.1809,-1.12214
322.5,8.40204,3.16196,-1.13252
325,8.47796,3.1817,-1.14027
327.5,8.55431,3.23554,-1.14922
330,8.63021,3.27049,-1.15242
332.5,8.70625,3.25494,-1.16022
335,8.7822,3.19211,-1.17037
337.5,8.858,3.13615,-1.17616
340,8.93422,3.06353,-1.18094
342.5,9.01049,2.99668,-1.18616
345,9.08633,2.93614,-1.18981
347.5,9.16301,2.8928,-1.19455
350,9.23935,2.86359,-1.20071
352.5,9.31564,2.84189,-1.2094
355,9.39212,2.82213,-1.21494
357.5,9.4679,2.81587,-1.21938
360,9.54558,2.80437,-1.22578
362.5,9.62227,2.8027,-1.23269
365,9.69925,2.7988,-1.23642
367.5,9.77614,2.80067,-1.24136
370,9.85334,2.80438,-1.24748
372.5,9.93029,2.81274,-1.25257
375,10.0077,2.82881,-1.26251
377.5,10.0847,2.83352,-1.2681
380,10.1616,2.84692,-1.27101
382.5,10.2397,2.86006,-1.27501
385,10.3171,2.88187,-1.28152
387.5,10.3946,2.90137,-1.28775
390,10.4724,2.91658,-1.29508
392.5,10.5501,2.93377,-1.30101
395,10.6278,2.9498,-1.30546
397.5,10.706,2.98214,-1.31103
400,10.7836,2.996,-1.31897
402.5,10.8617,3.01464,-1.32735
405,10.9398,3.03451,-1.3345
407.5,11.018,3.0743,-1.33816
410,11.096,3.08664,-1.34363
412.5,11.1743,3.12287,-1.35009
415,11.2526,3.14371,-1.35773
417.5,11.3312,3.16206,-1.36696
420,11.4099,3.18856,-1.37462
422.5,11.4881,3.20094,-1.38191
425,11.5669,3.22177,-1.38685
427.5,11.6457,3.24133,-1.39437
430,11.724,3.25445,-1.40027
432.5,11.8031,3.26101,-1.40635
435,11.8819,3.26466,-1.41291
437.5,11.9607,3.26284,-1.42016
440,12.0397,3.26832,-1.42635
442.5,12.1191,3.26207,-1.43361
445,12.1981,3.2603,-1.44115
447.5,12.2772,3.25756,-1.44868
450,12.3565,3.25652,-1.45212
452.5,12.4356,3.26776,-1.45826
455,12.5153,3.26913,-1.46515
457.5,12.595,3.28218,-1.46772
460,12.6741,3.28217,-1.47779
462.5,12.7537,3.27541,-1.48371
465,12.8335,3.27058,-1.49061
467.5,12.913,3.25357,-1.49854
470,12.9926,3.23124,-1.50449
472.5,13.0726,3.21384,-1.50997
475,13.1524,3.19285,-1.51463
477.5,13.2322,3.17124,-1.51745
480,13.3121,3.1519,-1.52316
482.5,13.3921,3.13201,-1.52997
485,13.4721,3.11464,-1.53386
487.5,13.5521,3.1133,-1.53674
490,13.632,3.10256,-1.54089
492.5,13.7117,3.08938,-1.54489
495,13.792,3.0743,-1.55297
497.5,13.8723,3.05798,-1.56231
500,13.9529,3.04292,-1.57166
502.5,14.0332,3.02326,-1.57591
505,14.1133,3.01598,-1.58219
507.5,14.1937,3.00786,-1.58718
510,14.2742,3.00052,-1.5909
512.5,14.3545,2.9965,-1.5951
515,14.435,2.98614,-1.5996
517.5,14.5154,2.98076,-1.6076
520,14.5956,2.97243,-1.6182
522.5,14.6767,2.96977,-1.62712
525,14.757,2.96538,-1.63497
527.5,14.838,2.96685,-1.64275
530,14.9191,2.96221,-1.65136
532.5,14.9997,2.96954,-1.6621
535,15.0805,2.9679,-1.67001
537.5,15.1615,2.97175,-1.6774
540,15.243,2.97024,-1.68852
542.5,15.3236,2.98531,-1.69823
545,15.4047,2.98161,-1.71119
547.5,15.4859,2.98868,-1.72494
550,15.5679,2.99159,-1.74001
552.5,15.6487,3.00242,-1.75283
555,15.7298,3.00686,-1.76782
557.5,15.8114,3.00108,-1.78279
560,15.8928,3.007,-1.7978
562.5,15.9741,3.00167,-1.81807
565,16.0559,2.99238,-1.8369
567.5,16.1372,2.96957,-1.85942
570,16.2186,2.95137,-1.88501
572.5,16.3,2.93221,-1.90254
575,16.3817,2.88773,-1.92306
577.5,16.4629,2.84231,-1.9426
580,16.5443,2.77361,-1.95899
582.5,16.6252,2.72393,-1.9762
585,16.707,2.67175,-1.99541
587.5,16.7874,2.63051,-2.01056
590,16.8701,2.62177,-2.02698
592.5,16.9519,2.62206,-2.03829
595,17.0343,2.64405,-2.05247
597.5,17.1162,2.66412,-2.06329
600,17.1984,2.67751,-2.07366
602.5,17.2806,2.70533,-2.08493
605,17.3631,2.7223,-2.09497
607.5,17.4453,2.73696,-2.10737
610,17.5277,2.75466,-2.11744
612.5,17.61,2.77027,-2.12851
615,17.6924,2.78567,-2.1387
617.5,17.7749,2.79001,-2.14862
620,17.8576,2.80256,-2.16165
622.5,17.9403,2.81654,-2.17323
625,18.0228,2.83516,-2.1801
627.5,18.1052,2.8457,-2.18865
630,18.1878,2.8533,-2.20275
632.5,18.2706,2.85798,-2.21234
635,18.3532,2.85759,-2.21755
637.5,18.436,2.87214,-2.2205
640,18.5184,2.87253,-2.23017
642.5,18.6014,2.88728,-2.23833
645,18.6842,2.89031,-2.24757
647.5,18.7667,2.8984,-2.25318
650,18.8496,2.90378,-2.25975
652.5,18.932,2.91327,-2.26503
655,19.0152,2.92456,-2.27036
657.5,19.098,2.93976,-2.27717
660,19.1808,2.964,-2.28598
662.5,19.2641,2.97422,-2.29241
665,19.3472,2.95955,-2.2972
667.5,19.4301,2.96956,-2.3003
670,19.5131,2.96835,-2.3058
672.5,19.596,2.97023,-2.31211
675,19.6797,2.9682,-2.31551
677.5,19.7622,2.97078,-2.31884
680,19.846,2.9679,-2.32069
682.5,19.9289,2.95913,-2.32505
685,20.0122,2.95074,-2.32898
687.5,20.0954,2.93704,-2.32874
690,20.1783,2.93192,-2.32741
692.5,20.2623,2.91669,-2.33112
695,20.3456,2.89746,-2.34874
697.5,20.4292,2.88471,-2.35325
700,20.5122,2.8727,-2.35453
702.5,20.5963,2.85277,-2.35878
705,20.6792,2.83823,-2.36118
707.5,20.7637,2.81227,-2.36188
710,20.8476,2.79723,-2.36057
712.5,20.9313,2.77165,-2.36188
715,21.0152,2.74552,-2.36477
717.5,21.0984,2.71625,-2.37294
720,21.1828,2.68067,-2.37727
722.5,21.2668,2.66471,-2.37822
725,21.351,2.62645,-2.37888
727.5,21.4351,2.60077,-2.37691
730,21.5191,2.56422,-2.37533
732.5,21.6028,2.51974,-2.38312
735,21.6868,2.47508,-2.38947
737.5,21.7706,2.43148,-2.38927
740,21.855,2.37668,-2.39059
742.5,21.9386,2.34256,-2.39447
745,22.0227,2.2924,-2.39443
747.5,22.1068,2.23258,-2.39632
750,22.1909,2.17919,-2.4013
752.5,22.2751,2.12862,-2.40639
755,22.3587,2.06709,-2.4081
757.5,22.4429,2.02712,-2.4094
760,22.5273,1.9664,-2.4094
762.5,22.6119,1.91347,-2.41035
765,22.696,1.84584,-2.41171
767.5,22.7803,1.79656,-2.41348
770,22.8646,1.73078,-2.41848
772.5,22.9488,1.67182,-2.42181
775,23.0332,1.60858,-2.42434
777.5,23.1175,1.55415,-2.42587
780,23.2018,1.49694,-2.42595
782.5,23.2861,1.43711,-2.42599
785,23.3705,1.3868,-2.42861
787.5,23.4549,1.33612,-2.42676
790,23.5398,1.29851,-2.42669