Folder: fsri_materials_database/01_Data/Cotton_Sheet/FTIR/IS

File: Cotton_Sheet_IS_T_220826_R7.dpt
7497.03,0.02417
7473.89,0.02719
7450.74,0.02866
7427.6,0.02722
7404.45,0.02808
7381.31,0.02233
7358.16,0.02135
7335.02,0.02930
7311.87,0.02344
7288.73,0.02542
7265.58,0.02824
7242.44,0.02753
7219.29,0.02238
7196.15,0.02915
7173,0.02544
7149.86,0.02430
7126.71,0.02340
7103.57,0.02422
7080.42,0.02454
7057.28,0.01685
7034.13,0.02202
7010.99,0.02054
6987.84,0.02512
6964.7,0.02358
6941.55,0.02572
6918.41,0.02575
6895.26,0.02527
6872.12,0.02780
6848.97,0.02003
6825.83,0.02331
6802.68,0.02317
6779.54,0.02976
6756.39,0.02236
6733.25,0.02546
6710.1,0.02036
6686.96,0.02080
6663.82,0.02143
6640.67,0.01706
6617.53,0.02121
6594.38,0.02356
6571.24,0.02159
6548.09,0.02342
6524.95,0.02678
6501.8,0.02410
6478.66,0.02192
6455.51,0.02446
6432.37,0.02447
6409.22,0.02263
6386.08,0.02378
6362.93,0.02365
6339.79,0.02372
6316.64,0.01921
6293.5,0.02306
6270.35,0.01986
6247.21,0.02228
6224.06,0.02332
6200.92,0.02305
6177.77,0.02009
6154.63,0.01790
6131.48,0.02276
6108.34,0.02491
6085.19,0.02417
6062.05,0.02313
6038.9,0.02229
6015.76,0.02304
5992.61,0.01879
5969.47,0.02327
5946.32,0.02217
5923.18,0.02126
5900.03,0.02234
5876.89,0.02135
5853.74,0.02471
5830.6,0.02199
5807.45,0.02286
5784.31,0.02116
5761.16,0.01927
5738.02,0.02186
5714.87,0.02277
5691.73,0.02118
5668.58,0.02221
5645.44,0.02287
5622.29,0.02191
5599.15,0.02299
5576,0.02005
5552.86,0.02347
5529.71,0.02334
5506.57,0.02163
5483.42,0.02027
5460.28,0.02074
5437.13,0.02220
5413.99,0.02241
5390.84,0.01987
5367.7,0.02116
5344.55,0.02020
5321.41,0.02398
5298.26,0.02301
5275.12,0.02255
5251.97,0.02200
5228.83,0.02212
5205.68,0.02119
5182.54,0.02157
5159.39,0.02263
5136.25,0.02220
5113.1,0.02210
5089.96,0.02199
5066.81,0.02218
5043.67,0.02256
5020.52,0.02274
4997.38,0.02274
4974.23,0.02238
4951.09,0.02256
4927.94,0.02173
4904.8,0.02236
4881.65,0.02257
4858.51,0.02222
4835.36,0.02360
4812.22,0.02149
4789.07,0.02218
4765.93,0.02253
4742.78,0.02238
4719.64,0.02244
4696.49,0.02324
4673.35,0.02256
4650.2,0.02193
4627.06,0.02294
4603.92,0.02252
4580.77,0.02261
4557.63,0.02276
4534.48,0.02257
4511.34,0.02179
4488.19,0.02278
4465.05,0.02258
4441.9,0.02247
4418.76,0.02297
4395.61,0.02310
4372.47,0.02282
4349.32,0.02247
4326.18,0.02255
4303.03,0.02266
4279.89,0.02210
4256.74,0.02268
4233.6,0.02274
4210.45,0.02276
4187.31,0.02244
4164.16,0.02302
4141.02,0.02266
4117.87,0.02265
4094.73,0.02196
4071.58,0.02231
4048.44,0.02230
4025.29,0.02268
4002.15,0.02303
3979,0.02216
3955.86,0.02218
3932.71,0.02261
3909.57,0.02254
3886.42,0.02312
3863.28,0.02295
3840.13,0.02245
3816.99,0.02296
3793.84,0.02260
3770.7,0.02277
3747.55,0.02250
3724.41,0.02246
3701.26,0.02259
3678.12,0.02165
3654.97,0.02200
3631.83,0.02213
3608.68,0.02172
3585.54,0.02165
3562.39,0.02214
3539.25,0.02170
3516.1,0.02135
3492.96,0.02155
3469.81,0.02179
3446.67,0.02120
3423.52,0.02092
3400.38,0.01982
3377.23,0.02096
3354.09,0.02121
3330.94,0.02070
3307.8,0.02034
3284.65,0.02077
3261.51,0.02033
3238.36,0.02004
3215.22,0.02109
3192.07,0.02100
3168.93,0.02115
3145.78,0.02026
3122.64,0.02019
3099.49,0.02100
3076.35,0.02072
3053.2,0.02098
3030.06,0.02069
3006.91,0.02028
2983.77,0.01975
2960.62,0.01922
2937.48,0.01997
2914.33,0.02092
2891.19,0.02084
2868.04,0.02016
2844.9,0.02127
2821.75,0.02112
2798.61,0.02142
2775.46,0.02115
2752.32,0.02160
2729.17,0.02134
2706.03,0.02124
2682.88,0.02127
2659.74,0.02145
2636.59,0.02150
2613.45,0.02074
2590.3,0.02128
2567.16,0.02092
2544.02,0.02120
2520.87,0.02102
2497.73,0.02120
2474.58,0.02120
2451.44,0.02124
2428.29,0.02137
2405.15,0.02124
2382,0.02124
2358.86,0.02138
2335.71,0.02112
2312.57,0.02091
2289.42,0.02114
2266.28,0.02101
2243.13,0.02157
2219.99,0.02117
2196.84,0.02114
2173.7,0.02101
2150.55,0.02112
2127.41,0.02117
2104.26,0.02097
2081.12,0.02124
2057.97,0.02067
2034.83,0.02103
2011.68,0.02070
1988.54,0.02069
1965.39,0.02108
1942.25,0.02072
1919.1,0.02069
1895.96,0.02054
1872.81,0.02042
1849.67,0.01993
1826.52,0.02011
1803.38,0.01999
1780.23,0.01913
1757.09,0.01737
1733.94,0.01962
1710.8,0.02090
1687.65,0.01907
1664.51,0.01832
1641.36,0.01847
1618.22,0.01905
1595.07,0.01885
1571.93,0.01818
1548.78,0.01844
1525.64,0.01837
1502.49,0.01902
1479.35,0.01849
1456.2,0.01874
1433.06,0.01885
1409.91,0.01854
1386.77,0.01781
1363.62,0.01831
1340.48,0.01780
1317.33,0.01689
1294.19,0.01784
1271.04,0.01934
1247.9,0.02007
1224.75,0.01921
1201.61,0.01815
1178.46,0.01807
1155.32,0.01776
1132.17,0.01815
1109.03,0.01832
1085.88,0.01812
1062.74,0.01958
1039.59,0.01905
1016.45,0.01928
993.304,0.02121
970.159,0.02062
947.014,0.01978
923.869,0.01892
900.724,0.01958
877.579,0.01922
854.434,0.01880
831.289,0.01867
808.144,0.01850
784.999,0.01903
761.854,0.01816
738.709,0.01831
715.565,0.01744
692.42,0.01826
669.275,0.01626
646.13,0.01739
622.985,0.01741
599.84,0.01463