Folder: fsri_materials_database/01_Data/EPDM_SCBA_Face_Seal/STA/N2/10K_min

File: EPDM_SCBA_Face_Seal_STA_N2_10KData_240227_R1.csv
Temp./C,Time/min,DSC/(mW/mg),Mass loss/mg
60.0,0.0,0.734741,-0.00118905
62.3,0.261568,0.782235,-0.00314336
64.6,0.514065,0.802673,-0.00441773
66.9,0.76068,0.828063,-0.00369179
69.2,1.00595,0.84559,-0.00359338
71.5,1.25037,0.85435,-0.005599
73.8,1.49092,0.87626,-0.00392365
76.1,1.73179,0.886702,-0.0039599
78.4,1.96898,0.900497,-0.00299281
80.7,2.20424,0.908212,-0.00393642
83,2.43862,0.919141,-0.00395
85.3,2.67339,0.929781,-0.00397204
87.6,2.90584,0.93416,-0.00527476
89.9,3.13689,0.938917,-0.00526714
92.2,3.3656,0.947194,-0.00493964
94.5,3.59425,0.956523,-0.00667798
96.8,3.81929,0.955329,-0.00540214
99.1,4.04723,0.959293,-0.00497873
101.4,4.27283,0.951681,-0.00528
103.7,4.49766,0.942065,-0.00659911
106,4.72254,0.9504,-0.00659024
108.3,4.94516,0.954174,-0.00522561
110.6,5.16946,0.955216,-0.00528436
112.9,5.39461,0.964499,-0.00526933
115.2,5.61805,0.960935,-0.00659
117.5,5.84224,0.970697,-0.00659011
119.8,6.06506,0.97097,-0.0065996
122.1,6.2873,0.974569,-0.00736422
124.4,6.51075,0.981263,-0.00541031
126.7,6.73244,0.987892,-0.00656396
129,6.95344,0.98828,-0.00528154
131.3,7.17429,0.991594,-0.00612671
133.6,7.39622,0.98598,-0.00790461
135.9,7.61908,0.98976,-0.00725649
138.2,7.83876,0.992157,-0.00921841
140.5,8.05964,0.991077,-0.00789396
142.8,8.2799,0.993385,-0.00792712
145.1,8.50091,0.996887,-0.00955024
147.4,8.72179,1.00162,-0.01021
149.7,8.9407,1.0038,-0.0102099
152,9.16099,1.0116,-0.00824001
154.3,9.37971,1.00826,-0.00956045
156.6,9.59977,1.02434,-0.00824311
158.9,9.81958,1.03342,-0.00956166
161.2,10.0383,1.02459,-0.00955221
163.5,10.259,1.034,-0.010855
165.8,10.478,1.03714,-0.00922887
168.1,10.6965,1.03425,-0.01054
170.4,10.9163,1.04932,-0.0115624
172.7,11.1349,1.04045,-0.01153
175,11.3539,1.0503,-0.011528
177.3,11.5731,1.04874,-0.01285
179.6,11.7914,1.0458,-0.0141595
181.9,12.011,1.04792,-0.0128501
184.2,12.2288,1.04984,-0.0154798
186.5,12.4471,1.05231,-0.0154884
188.8,12.666,1.05697,-0.0146583
191.1,12.8849,1.06262,-0.0151581
193.4,13.1004,1.05725,-0.0167617
195.7,13.3209,1.05949,-0.0186362
198,13.5405,1.06098,-0.0191099
200.3,13.7573,1.06347,-0.0200825
202.6,13.9755,1.0609,-0.0214129
204.9,14.1947,1.07333,-0.0210811
207.2,14.4129,1.06723,-0.02372
209.5,14.6324,1.05984,-0.02372
211.8,14.8507,1.06282,-0.0252782
214.1,15.0685,1.06544,-0.0299605
216.4,15.2863,1.07393,-0.029968
218.7,15.5046,1.07884,-0.0302994
221,15.7243,1.08062,-0.0316115
223.3,15.9425,1.08721,-0.0322797
225.6,16.1592,1.09667,-0.0344293
227.9,16.3768,1.09232,-0.0378907
230.2,16.5966,1.08373,-0.0406496
232.5,16.8159,1.09576,-0.04315
234.8,17.0338,1.09256,-0.0456044
237.1,17.2524,1.10008,-0.04678
239.4,17.471,1.10483,-0.049411
241.7,17.6888,1.10248,-0.0520525
244,17.9078,1.10929,-0.0547424
246.3,18.1266,1.10532,-0.0585111
248.6,18.344,1.10139,-0.0629125
250.9,18.563,1.09736,-0.0645183
253.2,18.7812,1.09616,-0.0694431
255.5,18.9989,1.08918,-0.0764726
257.8,19.2183,1.09798,-0.080299
260.1,19.4359,1.09606,-0.0851843
262.4,19.6541,1.10434,-0.088467
264.7,19.8737,1.10867,-0.0938693
267,20.0918,1.09485,-0.0951913
269.3,20.3106,1.10419,-0.100435
271.6,20.5279,1.10599,-0.108382
273.9,20.7479,1.10763,-0.1112
276.2,20.9664,1.10341,-0.117708
278.5,21.1843,1.10748,-0.124219
280.8,21.4043,1.11225,-0.132265
283.1,21.6227,1.11956,-0.139353
285.4,21.8425,1.12353,-0.147564
287.7,22.0615,1.12123,-0.154583
290,22.2823,1.12249,-0.162912
292.3,22.5017,1.12832,-0.168505
294.6,22.7205,1.13428,-0.17849
296.9,22.9407,1.13657,-0.185151
299.2,23.1601,1.14084,-0.195682
301.5,23.3789,1.13697,-0.205588
303.8,23.5968,1.14022,-0.214201
306.1,23.8175,1.14789,-0.225904
308.4,24.0359,1.15445,-0.237971
310.7,24.258,1.15868,-0.251456
313,24.4785,1.15659,-0.261578
315.3,24.6965,1.1606,-0.272067
317.6,24.9186,1.15829,-0.286978
319.9,25.1383,1.16047,-0.300087
322.2,25.3588,1.16643,-0.314893
324.5,25.5794,1.16858,-0.330285
326.8,25.8,1.16999,-0.345871
329.1,26.0203,1.17137,-0.363027
331.4,26.2405,1.16905,-0.381987
333.7,26.4613,1.1693,-0.398677
336,26.6823,1.17616,-0.418824
338.3,26.9018,1.17557,-0.440004
340.6,27.1241,1.17655,-0.457221
342.9,27.3441,1.17066,-0.481103
345.2,27.5657,1.16665,-0.502729
347.5,27.7863,1.16217,-0.523253
349.8,28.0078,1.16847,-0.545842
352.1,28.2296,1.16228,-0.570432
354.4,28.4508,1.15434,-0.591633
356.7,28.6721,1.14196,-0.616023
359,28.8932,1.13865,-0.638631
361.3,29.1173,1.12037,-0.662604
363.6,29.3392,1.10998,-0.68699
365.9,29.5609,1.10343,-0.713481
368.2,29.7814,1.09447,-0.737914
370.5,30.005,1.07908,-0.761592
372.8,30.2273,1.07163,-0.788228
375.1,30.4493,1.06409,-0.812653
377.4,30.6722,1.0409,-0.838191
379.7,30.8958,1.02214,-0.860355
382,31.118,1.00618,-0.882351
384.3,31.3394,0.996333,-0.903628
386.6,31.5646,0.976548,-0.923692
388.9,31.7863,0.961447,-0.944975
391.2,32.0086,0.950402,-0.963389
393.5,32.2319,0.928723,-0.98213
395.8,32.454,0.920053,-1.00041
398.1,32.6782,0.908341,-1.01948
400.4,32.9012,0.897218,-1.03738
402.7,33.1247,0.888496,-1.05557
405,33.3475,0.89011,-1.06913
407.3,33.5723,0.873349,-1.08467
409.6,33.7948,0.877233,-1.10411
411.9,34.02,0.874335,-1.12156
414.2,34.2434,0.869779,-1.13486
416.5,34.4674,0.888327,-1.14886
418.8,34.6909,0.888277,-1.16444
421.1,34.915,0.895134,-1.17969
423.4,35.1406,0.91509,-1.19616
425.7,35.3654,0.919932,-1.20932
428,35.5895,0.952572,-1.2222
430.3,35.8141,0.969403,-1.23923
432.6,36.0387,1.00424,-1.25341
434.9,36.2646,1.02924,-1.27267
437.2,36.4912,1.07412,-1.29375
439.5,36.7161,1.11653,-1.31485
441.8,36.9421,1.16749,-1.33564
444.1,37.167,1.23008,-1.36043
446.4,37.3911,1.28673,-1.39163
448.7,37.62,1.36701,-1.42643
451,37.8463,1.43969,-1.46518
453.3,38.0714,1.51662,-1.50798
455.6,38.299,1.59651,-1.56001
457.9,38.5257,1.67352,-1.61642
460.2,38.7528,1.75717,-1.67588
462.5,38.98,1.82259,-1.74196
464.8,39.2079,1.88307,-1.817
467.1,39.4351,1.90152,-1.90283
469.4,39.6627,1.92166,-1.98817
471.7,39.8879,1.8984,-2.07959
474,40.1139,1.83517,-2.16967
476.3,40.3394,1.73087,-2.26066
478.6,40.5645,1.57333,-2.3487
480.9,40.7883,1.37107,-2.43669
483.2,41.0093,1.13489,-2.51092
485.5,41.2346,0.858793,-2.57859
487.8,41.4559,0.563,-2.62965
490.1,41.6811,0.291635,-2.66408
492.4,41.9044,0.130529,-2.68034
494.7,42.1301,0.000761373,-2.68915
497,42.3539,-0.104876,-2.69418
499.3,42.5804,-0.15394,-2.69416
501.6,42.8064,-0.166043,-2.69477
503.9,43.034,-0.171997,-2.69633
506.2,43.26,-0.171915,-2.6977
508.5,43.4869,-0.201301,-2.69902
510.8,43.7146,-0.287704,-2.70099
513.1,43.9425,-0.348105,-2.69902
515.4,44.1708,-0.376293,-2.69935
517.7,44.3984,-0.408335,-2.70034
520,44.6237,-0.425366,-2.69901
522.3,44.8523,-0.444694,-2.70001
524.6,45.08,-0.458471,-2.70231
526.9,45.3084,-0.469028,-2.70166
529.2,45.5364,-0.471639,-2.70058
531.5,45.764,-0.469672,-2.70034
533.8,45.9939,-0.470269,-2.70132
536.1,46.2238,-0.455508,-2.70137
538.4,46.4518,-0.464694,-2.69864
540.7,46.6807,-0.462963,-2.69835
543,46.9102,-0.483679,-2.69836
545.3,47.1374,-0.478122,-2.69967
547.6,47.3666,-0.481143,-2.69967
549.9,47.5961,-0.48114,-2.70066
552.2,47.8222,-0.484698,-2.70198
554.5,48.0514,-0.484485,-2.7008
556.8,48.2802,-0.481364,-2.701
559.1,48.5079,-0.483414,-2.69968
561.4,48.736,-0.489184,-2.69967
563.7,48.965,-0.48626,-2.69968
566,49.194,-0.484974,-2.701
568.3,49.4218,-0.482174,-2.70232
570.6,49.6506,-0.482309,-2.70231
572.9,49.8792,-0.484146,-2.70016
575.2,50.1088,-0.477962,-2.70081
577.5,50.3389,-0.477657,-2.70264
579.8,50.5688,-0.477933,-2.70132
582.1,50.7978,-0.475991,-2.70112
584.4,51.0272,-0.474598,-2.70099
586.7,51.2556,-0.47713,-2.70231
589,51.4842,-0.471583,-2.69973
591.3,51.7143,-0.474895,-2.70095
593.6,51.943,-0.476288,-2.69958
595.9,52.1721,-0.467967,-2.69967
598.2,52.4015,-0.471997,-2.69839
600.5,52.6313,-0.469547,-2.7023
602.8,52.8603,-0.470586,-2.70105
605.1,53.0901,-0.476959,-2.70111
607.4,53.3172,-0.474735,-2.70177
609.7,53.5478,-0.470032,-2.702
612,53.7792,-0.476474,-2.70091
614.3,54.0079,-0.469541,-2.70373
616.6,54.2392,-0.466587,-2.70245
618.9,54.469,-0.482349,-2.70354
621.2,54.6992,-0.476425,-2.70012
623.5,54.9297,-0.468882,-2.6988
625.8,55.1596,-0.476902,-2.69989
628.1,55.3895,-0.480332,-2.7044
630.4,55.6212,-0.481081,-2.70297
632.7,55.8517,-0.477339,-2.70165
635,56.0823,-0.474165,-2.70297
637.3,56.3119,-0.47688,-2.70396
639.6,56.5419,-0.483898,-2.70151
641.9,56.7726,-0.495712,-2.7051
644.2,57.0036,-0.493123,-2.70465
646.5,57.2335,-0.497256,-2.70385
648.8,57.4632,-0.493124,-2.70517
651.1,57.6922,-0.49815,-2.70385
653.4,57.9255,-0.488608,-2.70517
655.7,58.1552,-0.50381,-2.70617
658,58.3848,-0.498793,-2.70286
660.3,58.6144,-0.502364,-2.7055
662.6,58.8434,-0.506249,-2.7055
664.9,59.0756,-0.518375,-2.70813
667.2,59.3057,-0.521169,-2.70945
669.5,59.5373,-0.520212,-2.71079
671.8,59.7675,-0.515225,-2.70848
674.1,59.9992,-0.504022,-2.708
676.4,60.2301,-0.502107,-2.70822
678.7,60.4618,-0.501962,-2.70659
681,60.6904,-0.501737,-2.70627
683.3,60.923,-0.50121,-2.70759
685.6,61.1551,-0.498378,-2.70923
687.9,61.3849,-0.490471,-2.70791
690.2,61.6147,-0.47821,-2.70792
692.5,61.8457,-0.485452,-2.7089
694.8,62.0753,-0.478468,-2.70905
697.1,62.3062,-0.472835,-2.70989
699.4,62.5364,-0.468189,-2.71221
701.7,62.7679,-0.473979,-2.70824
704,62.9977,-0.464683,-2.70758
706.3,63.2279,-0.463948,-2.70758
708.6,63.4598,-0.466764,-2.70955
710.9,63.6916,-0.464938,-2.70956
713.2,63.9229,-0.456118,-2.70956
715.5,64.1541,-0.45771,-2.70956
717.8,64.386,-0.46326,-2.7089
720.1,64.6169,-0.468028,-2.70824
722.4,64.8474,-0.470955,-2.70956
724.7,65.0789,-0.469428,-2.70923
727,65.3108,-0.462999,-2.71055
729.3,65.5422,-0.468113,-2.71087
731.6,65.7739,-0.467393,-2.70952
733.9,66.0053,-0.46087,-2.71054
736.2,66.2371,-0.471245,-2.71054
738.5,66.4704,-0.472715,-2.70956
740,66.6202,-0.477511,-2.71212