Folder: fsri_materials_database/01_Data/EPDM_SCBA_Face_Seal/STA/N2/30K_min

File: EPDM_SCBA_Face_Seal_STA_N2_30KData_240305_R1.csv
Temp./C,Time/min,DSC/(mW/mg),Mass loss/mg
60.0,0.0,1.26056,0.00280026
62.3,0.11412,1.46098,0.00222339
64.6,0.220126,1.63619,0.00246533
66.9,0.319009,1.77991,0.00136038
69.2,0.414085,1.91266,0.00246189
71.5,0.505728,2.02899,0.00232377
73.8,0.59496,2.12459,0.00208145
76.1,0.681839,2.21225,0.00220972
78.4,0.767638,2.29814,0.0027762
80.7,0.851513,2.36438,0.00130294
83,0.933744,2.41812,0.000958579
85.3,1.01476,2.48679,0.000412007
87.6,1.09528,2.5203,0.00109968
89.9,1.17535,2.57324,0.00125439
92.2,1.25367,2.61355,6.32079e-06
94.5,1.33194,2.65086,0.00120589
96.8,1.40908,2.67306,0.00114806
99.1,1.48681,2.67256,0.00279426
101.4,1.56357,2.67359,0.00278955
103.7,1.64041,2.66804,0.0014312
106,1.71616,2.66629,0.00143547
108.3,1.79312,2.66039,0.000358754
110.6,1.86961,2.66668,9.9014e-05
112.9,1.9458,2.66409,0.00022944
115.2,2.02164,2.68269,3.2284e-05
117.5,2.09728,2.69169,0.00143023
119.8,2.17342,2.69062,0.000388064
122.1,2.24908,2.69842,0.00140998
124.4,2.3242,2.70363,0.000450072
126.7,2.39959,2.71183,0.00174652
129,2.47435,2.7087,0.00050257
131.3,2.54906,2.71659,0.000110005
133.6,2.62345,2.73099,0.000109935
135.9,2.69712,2.73677,-0.00118636
138.2,2.77133,2.74015,-0.000209755
140.5,2.84512,2.75494,1.04868e-05
142.8,2.91853,2.76044,0.00143
145.1,2.99224,2.76358,0.00143478
147.4,3.06527,2.76646,0.000103758
149.7,3.13819,2.77851,0.00110033
152,3.21019,2.77939,0.000990949
154.3,3.28245,2.78726,-0.000219934
156.6,3.35591,2.81014,-0.000219969
158.9,3.42804,2.81886,-0.00122042
161.2,3.50034,2.82871,-0.0015312
163.5,3.57235,2.84196,-0.00273763
165.8,3.6445,2.8508,-0.000822699
168.1,3.71635,2.86179,-0.000869999
170.4,3.78833,2.88947,-0.00118261
172.7,3.85987,2.88499,-0.00220141
175,3.93154,2.90847,-0.00318273
177.3,4.00304,2.91876,-0.00193963
179.6,4.0747,2.92545,-0.00185996
181.9,4.14598,2.94173,-0.00253742
184.2,4.21652,2.95475,-0.00318
186.5,4.28771,2.96132,-0.00318
188.8,4.35827,2.96901,-0.00318017
191.1,4.42864,2.98028,-0.00186091
193.4,4.49925,2.9893,-0.00317967
195.7,4.56976,2.99244,-0.00316074
198,4.63968,3.00676,-0.00371989
200.3,4.71029,3.01235,-0.00482999
202.6,4.77999,3.0168,-0.00482998
204.9,4.84985,3.02258,-0.00508574
207.2,4.92019,3.02999,-0.0061425
209.5,4.99015,3.02937,-0.00613659
211.8,5.05992,3.03658,-0.00634348
214.1,5.12997,3.03745,-0.00646992
216.4,5.19987,3.05221,-0.00708351
218.7,5.2697,3.04537,-0.00779004
221,5.33967,3.04492,-0.00779706
223.3,5.40932,3.05031,-0.00910909
225.6,5.47911,3.04866,-0.00910707
227.9,5.54873,3.05089,-0.0104203
230.2,5.61843,3.05349,-0.0104284
232.5,5.6878,3.05616,-0.0117433
234.8,5.75757,3.0616,-0.0130513
237.1,5.82733,3.06067,-0.01437
239.4,5.89628,3.06447,-0.0156882
241.7,5.96603,3.06726,-0.0166813
244,6.03568,3.06857,-0.018126
246.3,6.10497,3.06866,-0.0190913
248.6,6.17422,3.06861,-0.020433
250.9,6.24392,3.06652,-0.0216801
253.2,6.31311,3.07074,-0.0243865
255.5,6.3824,3.06714,-0.0247076
257.8,6.45189,3.05439,-0.0276996
260.1,6.52113,3.04763,-0.0317768
262.4,6.59026,3.03964,-0.0330046
264.7,6.65957,3.03079,-0.034634
267,6.72897,3.01818,-0.0374287
269.3,6.79799,3.00571,-0.0405307
271.6,6.86728,2.99075,-0.0433553
273.9,6.93675,2.98008,-0.0456249
276.2,7.00579,2.97058,-0.0479712
278.5,7.0754,2.95273,-0.0516748
280.8,7.14432,2.94146,-0.0541242
283.1,7.21371,2.92747,-0.0592902
285.4,7.28324,2.90964,-0.0624285
287.7,7.35174,2.90555,-0.0660647
290,7.42209,2.88535,-0.0706216
292.3,7.49128,2.86963,-0.0745413
294.6,7.56094,2.86348,-0.0787837
296.9,7.63053,2.84538,-0.0817115
299.2,7.69982,2.83214,-0.0856695
301.5,7.7696,2.82995,-0.0907004
303.8,7.83915,2.82719,-0.0961661
306.1,7.90884,2.81888,-0.101306
308.4,7.9788,2.80935,-0.106724
310.7,8.04837,2.81147,-0.111534
313,8.11759,2.8048,-0.116606
315.3,8.18745,2.78573,-0.1231
317.6,8.25732,2.78168,-0.130666
319.9,8.32717,2.7793,-0.136573
322.2,8.3968,2.76553,-0.143343
324.5,8.46666,2.75837,-0.152065
326.8,8.53665,2.75028,-0.160009
329.1,8.60662,2.73231,-0.166926
331.4,8.67653,2.72447,-0.176011
333.7,8.74604,2.70565,-0.183668
336,8.81668,2.69492,-0.19426
338.3,8.88669,2.68186,-0.20426
340.6,8.9568,2.66686,-0.212039
342.9,9.02752,2.64875,-0.222937
345.2,9.09739,2.63606,-0.233216
347.5,9.16801,2.63228,-0.244582
349.8,9.23837,2.61227,-0.257565
352.1,9.30873,2.60373,-0.269504
354.4,9.37931,2.5914,-0.281843
356.7,9.44919,2.5837,-0.296057
359,9.51987,2.56376,-0.30992
361.3,9.591,2.55996,-0.325477
363.6,9.66171,2.53857,-0.337784
365.9,9.73257,2.53161,-0.356211
368.2,9.80305,2.5232,-0.37035
370.5,9.8741,2.5193,-0.388435
372.8,9.94508,2.50663,-0.40678
375.1,10.0161,2.48681,-0.425396
377.4,10.0866,2.47392,-0.443944
379.7,10.1578,2.46492,-0.46284
382,10.2291,2.44645,-0.483569
384.3,10.3001,2.43349,-0.504652
386.6,10.3714,2.42167,-0.52472
388.9,10.4424,2.3923,-0.5462
391.2,10.5137,2.37135,-0.568072
393.5,10.5851,2.3518,-0.590715
395.8,10.6561,2.3421,-0.61393
398.1,10.7277,2.32013,-0.634883
400.4,10.7992,2.30758,-0.656972
402.7,10.8708,2.29856,-0.681862
405,10.942,2.29076,-0.705684
407.3,11.0142,2.28143,-0.728183
409.6,11.0861,2.27694,-0.751976
411.9,11.1576,2.27655,-0.773369
414.2,11.2294,2.2574,-0.796222
416.5,11.3011,2.23311,-0.820216
418.8,11.373,2.19725,-0.843395
421.1,11.4446,2.18127,-0.862925
423.4,11.5165,2.16656,-0.884365
425.7,11.5886,2.13281,-0.906576
428,11.6605,2.10905,-0.927105
430.3,11.7328,2.08933,-0.950602
432.6,11.8046,2.08903,-0.970248
434.9,11.8772,2.10036,-0.990736
437.2,11.9494,2.12804,-1.01177
439.5,12.022,2.13261,-1.03123
441.8,12.0941,2.16929,-1.05183
444.1,12.1665,2.19005,-1.07185
446.4,12.2393,2.23506,-1.09226
448.7,12.3118,2.29905,-1.11452
451,12.3849,2.36402,-1.13573
453.3,12.457,2.45211,-1.15797
455.6,12.5307,2.56186,-1.18058
457.9,12.6035,2.68512,-1.20285
460.2,12.6768,2.82721,-1.22906
462.5,12.75,2.99316,-1.25668
464.8,12.8238,3.17251,-1.28668
467.1,12.8971,3.37482,-1.31906
469.4,12.9707,3.58612,-1.35394
471.7,13.0447,3.82458,-1.39489
474,13.1185,4.05379,-1.43826
476.3,13.1927,4.31126,-1.48791
478.6,13.2668,4.55119,-1.54327
480.9,13.3408,4.78722,-1.60474
483.2,13.4152,4.99067,-1.67312
485.5,13.4894,5.14394,-1.74479
487.8,13.5637,5.23555,-1.82457
490.1,13.6376,5.25519,-1.90846
492.4,13.7115,5.22032,-1.99736
494.7,13.7849,5.09597,-2.08902
497,13.8575,4.85188,-2.18379
499.3,13.9309,4.46706,-2.2742
501.6,14.0033,3.92613,-2.35827
503.9,14.0748,3.26879,-2.43824
506.2,14.1457,2.50586,-2.50759
508.5,14.2168,1.63701,-2.56801
510.8,14.2872,0.760689,-2.6134
513.1,14.3581,0.0403761,-2.64883
515.4,14.4294,-0.485522,-2.67173
517.7,14.5012,-0.886453,-2.68565
520,14.5736,-1.2146,-2.6925
522.3,14.646,-1.46641,-2.69589
524.6,14.7196,-1.62723,-2.69841
526.9,14.7929,-1.7252,-2.69989
529.2,14.8667,-1.77759,-2.69891
531.5,14.9406,-1.81576,-2.6989
533.8,15.0142,-1.84736,-2.6989
536.1,15.088,-1.86725,-2.70022
538.4,15.1626,-1.88087,-2.70022
540.7,15.2368,-1.89202,-2.70086
543,15.3108,-1.91356,-2.70154
545.3,15.3855,-1.92847,-2.70154
547.6,15.4596,-1.95342,-2.70122
549.9,15.5342,-1.98785,-2.70121
552.2,15.6084,-2.01404,-2.70121
554.5,15.6828,-2.04377,-2.70121
556.8,15.757,-2.07362,-2.70121
559.1,15.8318,-2.09644,-2.70121
561.4,15.9066,-2.11775,-2.70056
563.7,15.9805,-2.14991,-2.70055
566,16.0555,-2.18559,-2.70055
568.3,16.1304,-2.20944,-2.70186
570.6,16.2053,-2.24319,-2.70186
572.9,16.28,-2.2707,-2.70113
575.2,16.3546,-2.29873,-2.70185
577.5,16.4298,-2.32585,-2.70218
579.8,16.5047,-2.34695,-2.70219
582.1,16.5799,-2.34951,-2.70219
584.4,16.6547,-2.35979,-2.70087
586.7,16.7302,-2.36179,-2.70087
589,16.8056,-2.37366,-2.70222
591.3,16.8808,-2.37781,-2.70252
593.6,16.9559,-2.37993,-2.7012
595.9,17.0316,-2.36885,-2.70119
598.2,17.1066,-2.37035,-2.70288
600.5,17.1827,-2.37051,-2.70384
602.8,17.258,-2.37066,-2.70384
605.1,17.3336,-2.37023,-2.70386
607.4,17.4098,-2.37066,-2.70252
609.7,17.4859,-2.37007,-2.70252
612,17.5618,-2.37517,-2.70252
614.3,17.6381,-2.37285,-2.70252
616.6,17.714,-2.3682,-2.70252
618.9,17.79,-2.35531,-2.70288
621.2,17.866,-2.36351,-2.70316
623.5,17.9425,-2.34676,-2.70384
625.8,18.0184,-2.35233,-2.70429
628.1,18.0943,-2.36388,-2.70514
630.4,18.171,-2.35664,-2.70318
632.7,18.2474,-2.35887,-2.70318
635,18.3236,-2.35949,-2.70318
637.3,18.3998,-2.37105,-2.70318
639.6,18.4763,-2.38142,-2.70318
641.9,18.5525,-2.39187,-2.70405
644.2,18.6286,-2.4037,-2.70285
646.5,18.7042,-2.40371,-2.70277
648.8,18.7809,-2.41799,-2.70522
651.1,18.8572,-2.41392,-2.70491
653.4,18.9337,-2.42068,-2.7045
655.7,19.0093,-2.42961,-2.7045
658,19.0862,-2.4263,-2.7045
660.3,19.1625,-2.43218,-2.7045
662.6,19.2389,-2.42959,-2.7045
664.9,19.3154,-2.43473,-2.70582
667.2,19.3917,-2.45301,-2.70443
669.5,19.468,-2.45253,-2.70318
671.8,19.5446,-2.45839,-2.70452
674.1,19.621,-2.45792,-2.7045
676.4,19.6974,-2.45233,-2.7045
678.7,19.7745,-2.46766,-2.70581
681,19.8507,-2.46143,-2.70581
683.3,19.9269,-2.47255,-2.70449
685.6,20.0041,-2.4831,-2.70719
687.9,20.0807,-2.49248,-2.70581
690.2,20.1575,-2.49502,-2.70712
692.5,20.2341,-2.50654,-2.70713
694.8,20.3104,-2.51724,-2.70713
697.1,20.3878,-2.52647,-2.70713
699.4,20.4644,-2.53262,-2.70713
701.7,20.5414,-2.5427,-2.70581
704,20.6185,-2.55636,-2.70579
706.3,20.6955,-2.55819,-2.70714
708.6,20.7724,-2.56177,-2.70714
710.9,20.8493,-2.56521,-2.70601
713.2,20.9266,-2.57451,-2.70713
715.5,21.0034,-2.58264,-2.70845
717.8,21.0807,-2.58834,-2.70712
720.1,21.1579,-2.60367,-2.70847
722.4,21.2353,-2.6083,-2.70845
724.7,21.3128,-2.62172,-2.70853
727,21.3899,-2.63115,-2.71042
729.3,21.4675,-2.64249,-2.70977
731.6,21.5446,-2.65014,-2.70993
733.9,21.6222,-2.65843,-2.71109
736.2,21.6996,-2.66339,-2.71109
738.5,21.777,-2.66679,-2.7109
740,21.8275,-2.67448,-2.71046