Folder: fsri_materials_database/01_Data/Polyisocyanurate_Spray_Foam_Insulation/STA/N2/10K_min (part 2)

File: Polyisocyanurate_Spray_Foam_Insulation_STA_N2_10KData_241030_R3.csv
Temp/C,Time/min,Mass loss(subtr.)/mg,DSC(subtr.)/(mW/mg),Sensit./(uV/mW)
26.077,10.00417,-0.00473,0.01006482,1.00326
29.077,11.33063,-0.00688636,0.11881,1.00487
32.077,11.76995,-0.006995207,0.1692,1.00644
35.077,12.144,-0.00561532,0.19553,1.00796
38.077,12.49416,-0.007250969,0.21173,1.00944
41.077,12.83166,-0.006484172,0.22289,1.01087
44.077,13.16212,-0.007679929,0.23458,1.01226
47.077,13.48785,-0.008999852,0.24396,1.0136
50.077,13.80757,-0.008983387,0.24783,1.0149
53.077,14.12346,-0.01060608,0.25168,1.01615
56.077,14.43591,-0.0103199,0.25517,1.01736
59.077,14.74528,-0.01163999,0.25785,1.01852
62.077,15.05086,-0.01040706,0.25618,1.01964
65.077,15.35369,-0.01296211,0.25313,1.02071
68.077,15.65588,-0.01430005,0.25356,1.02174
71.077,15.95555,-0.01462342,0.25195,1.02273
74.077,16.25538,-0.0146,0.25049,1.02367
77.077,16.55479,-0.01559,0.2504,1.02456
80.077,16.85359,-0.01493004,0.25142,1.02541
83.077,17.15157,-0.01494009,0.25304,1.02622
86.077,17.44848,-0.01625,0.25529,1.02699
89.077,17.74416,-0.01889,0.25692,1.02771
92.077,18.03903,-0.01822011,0.25947,1.02839
95.077,18.33301,-0.02086792,0.26503,1.02902
98.077,18.62591,-0.02210584,0.26602,1.02961
101.077,18.91786,-0.02425708,0.27171,1.03016
104.077,19.20905,-0.02547,0.27559,1.03067
107.077,19.4997,-0.0271197,0.27927,1.03113
110.077,19.79019,-0.02844,0.2855,1.03155
113.077,20.08098,-0.03238097,0.28826,1.03193
116.077,20.37134,-0.03466567,0.29238,1.03226
119.077,20.66278,-0.03667,0.29489,1.03256
122.077,20.95305,-0.03766007,0.29839,1.03281
125.077,21.2422,-0.04161,0.30371,1.03302
128.077,21.53189,-0.04527438,0.30419,1.03319
131.077,21.82085,-0.04828144,0.30687,1.03332
134.077,22.10963,-0.05083006,0.3109,1.03341
137.077,22.39798,-0.05479106,0.31401,1.03346
140.077,22.68606,-0.05741,0.31825,1.03347
143.077,22.97338,-0.06005,0.32109,1.03343
146.077,23.26031,-0.06269,0.32291,1.03336
149.077,23.54664,-0.06400999,0.32507,1.03325
152.077,23.83289,-0.06795,0.32953,1.0331
155.077,24.11888,-0.07059,0.33383,1.03291
158.077,24.40545,-0.07322264,0.33819,1.03268
161.077,24.69112,-0.07718,0.34005,1.03241
164.077,24.97782,-0.07981,0.34511,1.0321
167.077,25.26319,-0.08376,0.35209,1.03175
170.077,25.54833,-0.0863998,0.35633,1.03137
173.077,25.83391,-0.09167001,0.35838,1.03095
176.077,26.11845,-0.09694842,0.36376,1.03049
179.077,26.40375,-0.10089,0.36694,1.03
182.077,26.68899,-0.10748,0.37182,1.02946
185.077,26.97282,-0.11274,0.37761,1.0289
188.077,27.25744,-0.11931,0.37981,1.02829
191.077,27.54186,-0.12693,0.385,1.02765
194.077,27.82638,-0.13535,0.39036,1.02697
197.077,28.1114,-0.14481,0.39745,1.02626
200.077,28.39553,-0.1555,0.40333,1.02551
203.077,28.68009,-0.16403,0.4089,1.02473
206.077,28.9646,-0.17499,0.41711,1.02392
209.077,29.24908,-0.18585,0.42259,1.02306
212.077,29.53366,-0.19794,0.42717,1.02218
215.077,29.81822,-0.2081,0.4326,1.02126
218.077,30.10229,-0.22142,0.43326,1.02031
221.077,30.3865,-0.23381,0.43452,1.01933
224.077,30.67074,-0.24487,0.43215,1.01831
227.077,30.95455,-0.2558,0.42915,1.01726
230.077,31.23862,-0.26689,0.42742,1.01618
233.077,31.5223,-0.27611,0.42571,1.01506
236.077,31.80575,-0.28332,0.42287,1.01392
239.077,32.08931,-0.29215,0.42303,1.01274
242.077,32.3734,-0.29818,0.42393,1.01154
245.077,32.65803,-0.30568,0.42647,1.0103
248.077,32.94225,-0.31003,0.42773,1.00903
251.077,33.22627,-0.3153,0.43009,1.00774
254.077,33.51069,-0.31805,0.43297,1.00641
257.077,33.79571,-0.32452,0.43711,1.00506
260.077,34.08041,-0.32913,0.43968,1.00367
263.077,34.36569,-0.33375,0.44566,1.00226
266.077,34.64995,-0.34079,0.4538,1.00082
269.077,34.93467,-0.34658,0.462,0.99935
272.077,35.21964,-0.35383,0.47198,0.99786
275.077,35.50474,-0.36469,0.48617,0.99634
278.077,35.79027,-0.37456,0.50573,0.99479
281.077,36.07677,-0.38658,0.52439,0.99321
284.077,36.3637,-0.4017,0.54213,0.99161
287.077,36.65067,-0.41781,0.56587,0.98999
290.077,36.93802,-0.43599,0.58389,0.98834
293.077,37.22545,-0.45986,0.60231,0.98666
296.077,37.51267,-0.48124,0.61491,0.98496
299.077,37.79968,-0.5098,0.62831,0.98323
302.077,38.08577,-0.53997,0.63569,0.98148
305.077,38.37194,-0.57358,0.6349,0.97971
308.077,38.65708,-0.60882,0.63225,0.97792
311.077,38.94256,-0.64787,0.62865,0.9761
314.077,39.22793,-0.68829,0.61695,0.97426
317.077,39.51373,-0.7353,0.606,0.9724
320.077,39.80058,-0.78527,0.59616,0.97051
323.077,40.08694,-0.83784,0.58424,0.96861
326.077,40.37364,-0.89646,0.57229,0.96668
329.077,40.6608,-0.96178,0.56171,0.96473
332.077,40.94819,-1.0312,0.54765,0.96277
335.077,41.23431,-1.11238,0.52821,0.96078
338.077,41.52175,-1.20158,0.50848,0.95877
341.077,41.8083,-1.29846,0.48123,0.95675
344.077,42.09536,-1.40777,0.45217,0.95471
347.077,42.38192,-1.52232,0.41629,0.95264
350.077,42.66782,-1.64226,0.37211,0.95056
353.077,42.95335,-1.76227,0.31755,0.94846
356.077,43.23852,-1.87937,0.25237,0.94635
359.077,43.52407,-1.98826,0.18362,0.94422
362.077,43.80985,-2.08925,0.1234,0.94207
365.077,44.09688,-2.18101,0.07368251,0.9399
368.077,44.38441,-2.25916,0.04145272,0.93772
371.077,44.6724,-2.32621,0.024154,0.93552
374.077,44.9608,-2.38478,0.01706639,0.93331
377.077,45.25023,-2.43287,0.01694981,0.93108
380.077,45.53941,-2.47121,0.02092858,0.92884
383.077,45.82945,-2.50515,0.02462909,0.92659
386.077,46.11966,-2.5347,0.03290098,0.92432
389.077,46.41032,-2.55988,0.04065825,0.92203
392.077,46.70147,-2.58209,0.04556575,0.91974
395.077,46.99273,-2.60225,0.04594706,0.91743
398.077,47.28489,-2.6213,0.04678913,0.91511
401.077,47.5767,-2.63834,0.04639828,0.91277
404.077,47.86839,-2.65343,0.0454997,0.91043
407.077,48.15967,-2.67108,0.04075763,0.90807
410.077,48.45093,-2.68591,0.04087288,0.9057
413.077,48.74271,-2.69903,0.03721806,0.90333
416.077,49.03391,-2.71526,0.03490081,0.90094
419.077,49.3257,-2.7271,0.03515098,0.89854
422.077,49.6178,-2.7412,0.03468201,0.89613
425.077,49.90893,-2.75302,0.03410999,0.89371
428.077,50.20158,-2.76606,0.03438374,0.89129
431.077,50.49361,-2.77903,0.0311425,0.88885
434.077,50.78655,-2.79423,0.03208588,0.88641
437.077,51.07954,-2.80616,0.03302965,0.88395
440.077,51.37226,-2.8205,0.03396392,0.88149
443.077,51.6658,-2.83367,0.03143737,0.87903
446.077,51.95932,-2.84865,0.03305382,0.87655
449.077,52.25325,-2.86372,0.0346866,0.87407
452.077,52.54754,-2.8775,0.03049836,0.87158
455.077,52.84221,-2.8919,0.03046185,0.86909
458.077,53.13696,-2.90612,0.03128157,0.86659
461.077,53.43164,-2.92202,0.02964893,0.86408
464.077,53.72693,-2.93429,0.03036262,0.86157
467.077,54.02165,-2.95168,0.02964804,0.85905
470.077,54.31688,-2.96643,0.03088666,0.85653
473.077,54.61165,-2.98182,0.03077403,0.85401
476.077,54.90643,-2.9991,0.03337796,0.85148
479.077,55.20241,-3.01366,0.03104278,0.84894
482.077,55.49732,-3.03038,0.03290972,0.84641
485.077,55.79311,-3.0462,0.03505057,0.84387
488.077,56.08868,-3.05965,0.03219007,0.84132
491.077,56.38422,-3.07579,0.03366023,0.83878
494.077,56.68038,-3.08927,0.03420894,0.83623
497.077,56.9767,-3.10284,0.03500042,0.83368
500.077,57.27338,-3.11379,0.03617023,0.83112
503.077,57.56969,-3.12477,0.05733571,0.82857
506.077,57.86646,-3.13625,0.06449331,0.82601
509.077,58.16326,-3.14441,0.06999925,0.82346
512.077,58.46075,-3.15284,0.07058197,0.8209
515.077,58.758,-3.16082,0.07162391,0.81834
518.077,59.05572,-3.16909,0.08467852,0.81578
521.077,59.35278,-3.17769,0.10365,0.81322
524.077,59.65039,-3.18393,0.11132,0.81067
527.077,59.94872,-3.18985,0.11152,0.80811
530.077,60.24629,-3.19656,0.10993,0.80555
533.077,60.54453,-3.20127,0.10055,0.80299
536.077,60.84261,-3.20797,0.091438,0.80044
539.077,61.14106,-3.21236,0.08072809,0.79788
542.077,61.43983,-3.21765,0.08320057,0.79533
545.077,61.73808,-3.22299,0.07640469,0.79278
548.077,62.03707,-3.227,0.07000552,0.79023
551.077,62.336,-3.2319,0.05615281,0.78768
554.077,62.63324,-3.2332,-0.001753046,0.78514
557.077,62.93038,-3.2403,-0.04810532,0.7826
560.077,63.22921,-3.24156,-0.06425348,0.78006
563.077,63.52882,-3.24482,-0.07718632,0.77752
566.077,63.82814,-3.2478,-0.08996405,0.77499
569.077,64.1276,-3.25011,-0.09562871,0.77246
572.077,64.42757,-3.2531,-0.09668576,0.76994
575.077,64.72754,-3.25638,-0.1026,0.76741
578.077,65.02821,-3.25902,-0.10637,0.7649
581.077,65.32911,-3.26165,-0.10866,0.76238
584.077,65.63014,-3.2656,-0.11378,0.75987
587.077,65.9307,-3.26433,-0.12624,0.75737
590.077,66.23026,-3.26792,-0.15002,0.75487
593.077,66.52915,-3.27054,-0.19659,0.75238
596.077,66.82932,-3.27087,-0.20572,0.74989
599.077,67.13061,-3.27252,-0.20816,0.7474
602.077,67.43235,-3.27317,-0.20682,0.74492
605.077,67.73434,-3.27548,-0.20047,0.74245
608.077,68.03573,-3.27681,-0.19212,0.73998
611.077,68.33695,-3.27976,-0.18426,0.73752
614.077,68.63881,-3.28043,-0.17508,0.73506
617.077,68.94083,-3.28206,-0.1575,0.73261
620.077,69.2426,-3.28233,-0.15193,0.73017
623.077,69.54424,-3.28339,-0.14927,0.72773
626.077,69.84533,-3.28471,-0.14727,0.7253
629.077,70.14711,-3.28569,-0.14853,0.72288
632.077,70.44898,-3.28602,-0.14484,0.72046
635.077,70.75162,-3.28602,-0.14487,0.71805
638.077,71.05482,-3.28734,-0.14179,0.71565
641.077,71.35796,-3.28931,-0.13486,0.71325
644.077,71.6609,-3.28966,-0.13401,0.71086
647.077,71.96333,-3.29195,-0.13442,0.70848
650.077,72.26632,-3.2948,-0.13401,0.70611
653.077,72.56939,-3.29447,-0.13048,0.70374
656.077,72.8719,-3.29481,-0.12994,0.70138
659.077,73.17492,-3.29613,-0.1298,0.69903
662.077,73.47776,-3.29678,-0.12984,0.69669
665.077,73.7804,-3.2981,-0.13088,0.69436
668.077,74.08293,-3.2981,-0.13782,0.69203
671.077,74.3858,-3.30008,-0.13859,0.68971
674.077,74.68869,-3.30007,-0.14119,0.6874
677.077,74.99142,-3.30106,-0.14508,0.6851
680.077,75.29542,-3.30304,-0.14464,0.68281
683.077,75.59938,-3.30271,-0.14892,0.68052
686.077,75.90409,-3.30271,-0.15412,0.67825
689.077,76.209,-3.30437,-0.15493,0.67598
692.077,76.51356,-3.30596,-0.15938,0.67372
695.077,76.81764,-3.30699,-0.1632,0.67147
698.077,77.12113,-3.307,-0.16876,0.66923
701.077,77.42525,-3.30831,-0.1709,0.667
701.777,77.49776,-3.30963,-0.17351,0.66648