Folder: fsri_materials_database/01_Data/Polyisocyanurate_Spray_Foam_Insulation/STA/N2/10K_min

File: Polyisocyanurate_Spray_Foam_Insulation_STA_N2_10KData_241029_R1.csv
Temp/C,Time/min,Mass loss(subtr.)/mg,DSC(subtr.)/(mW/mg),Sensit./(uV/mW)
25.996,10.005,-0.00439,0.007527587,1.00321
28.996,11.33305,-0.006108897,0.11141,1.00483
31.996,11.7717,-0.00463289,0.15805,1.0064
34.996,12.14465,-0.004281172,0.1844,1.00792
37.996,12.49197,-0.006425286,0.20148,1.0094
40.996,12.82748,-0.00560363,0.21881,1.01083
43.996,13.15745,-0.00655157,0.229,1.01222
46.996,13.48224,-0.007575223,0.23718,1.01357
49.996,13.80202,-0.008897923,0.24654,1.01487
52.996,14.11866,-0.01020542,0.25054,1.01612
55.996,14.43062,-0.01153009,0.25225,1.01733
58.996,14.74136,-0.01156528,0.24791,1.01849
61.996,15.0475,-0.01283414,0.24465,1.01961
64.996,15.35095,-0.01416012,0.23893,1.02068
67.996,15.65161,-0.01547983,0.23617,1.02171
70.996,15.95105,-0.01421299,0.23341,1.0227
73.996,16.2497,-0.0140894,0.23341,1.02364
76.996,16.54821,-0.01656768,0.235,1.02454
79.996,16.84649,-0.01789,0.23677,1.02539
82.996,17.14371,-0.01723986,0.24039,1.0262
85.996,17.44059,-0.01788256,0.24343,1.02697
88.996,17.73644,-0.01921034,0.24611,1.02769
91.996,18.0298,-0.02119,0.24778,1.02837
94.996,18.32486,-0.02150833,0.25272,1.029
97.996,18.61834,-0.02283997,0.25539,1.0296
100.996,18.91065,-0.02547,0.25979,1.03015
103.996,19.20186,-0.02546988,0.2636,1.03065
106.996,19.49341,-0.02811001,0.26797,1.03112
109.996,19.78454,-0.03074,0.27268,1.03154
112.996,20.07457,-0.03205,0.27731,1.03192
115.996,20.36454,-0.03463959,0.28041,1.03226
118.996,20.6546,-0.03733,0.28221,1.03255
121.996,20.94455,-0.03897,0.28945,1.03281
124.996,21.23372,-0.0426182,0.28983,1.03302
127.996,21.52288,-0.04523,0.29168,1.03319
130.996,21.81125,-0.04787,0.29415,1.03332
133.996,22.09889,-0.05038808,0.29901,1.03341
136.996,22.38653,-0.0528,0.30038,1.03346
139.996,22.67376,-0.05544,0.30394,1.03347
142.996,22.96079,-0.05807958,0.30773,1.03343
145.996,23.24797,-0.06203417,0.31149,1.03336
148.996,23.53494,-0.063008,0.31392,1.03325
151.996,23.82155,-0.06432759,0.31794,1.0331
154.996,24.10834,-0.0686145,0.32169,1.03291
157.996,24.39435,-0.06993036,0.32629,1.03268
160.996,24.67958,-0.07322,0.32863,1.03241
163.996,24.96528,-0.07519945,0.33366,1.03211
166.996,25.25048,-0.0788201,0.34025,1.03176
169.996,25.53679,-0.08110476,0.34416,1.03138
172.996,25.82178,-0.08575,0.34966,1.03096
175.996,26.10617,-0.08869996,0.35434,1.0305
178.996,26.39051,-0.09336333,0.35775,1.03001
181.996,26.67513,-0.09792259,0.3587,1.02948
184.996,26.95843,-0.1032,0.36442,1.02891
187.996,27.24263,-0.1111,0.36896,1.02831
190.996,27.52615,-0.11773,0.37393,1.02767
193.996,27.81027,-0.12299,0.38072,1.02699
196.996,28.09411,-0.13158,0.38587,1.02628
199.996,28.37847,-0.14251,0.39206,1.02553
202.996,28.66223,-0.15095,0.39903,1.02475
205.996,28.94642,-0.16088,0.4048,1.02394
208.996,29.22982,-0.17224,0.41092,1.02309
211.996,29.51341,-0.1849,0.4165,1.0222
214.996,29.79691,-0.19321,0.42103,1.02129
217.996,30.08073,-0.20549,0.42052,1.02034
220.996,30.36388,-0.21684,0.42272,1.01935
223.996,30.64717,-0.2281,0.42176,1.01834
226.996,30.92983,-0.23691,0.42009,1.01729
229.996,31.21342,-0.24796,0.42122,1.01621
232.996,31.49739,-0.25904,0.4177,1.01509
235.996,31.78181,-0.26739,0.41727,1.01395
238.996,32.06519,-0.27359,0.41567,1.01278
241.996,32.35015,-0.27885,0.41557,1.01157
244.996,32.6339,-0.28477,0.41735,1.01033
247.996,32.91863,-0.28982,0.4196,1.00907
250.996,33.20203,-0.29477,0.4222,1.00777
253.996,33.48654,-0.29889,0.42633,1.00645
256.996,33.77129,-0.303,0.42947,1.00509
259.996,34.05553,-0.30761,0.43492,1.00371
262.996,34.34032,-0.31156,0.44025,1.0023
265.996,34.62562,-0.3172,0.44755,1.00086
268.996,34.91125,-0.32249,0.45697,0.99939
271.996,35.1971,-0.33279,0.47189,0.9979
274.996,35.48328,-0.33906,0.48852,0.99638
277.996,35.76919,-0.35028,0.50527,0.99483
280.996,36.0557,-0.36208,0.52588,0.99326
283.996,36.34265,-0.37459,0.54795,0.99166
286.996,36.63082,-0.39215,0.57225,0.99003
289.996,36.91925,-0.4105,0.59141,0.98838
292.996,37.20922,-0.4309,0.60834,0.9867
295.996,37.49878,-0.45377,0.62612,0.985
298.996,37.78662,-0.48041,0.63834,0.98328
301.996,38.07415,-0.50929,0.64335,0.98153
304.996,38.36035,-0.53941,0.64587,0.97976
307.996,38.64635,-0.57481,0.64109,0.97797
310.996,38.93126,-0.61127,0.63723,0.97615
313.996,39.21681,-0.65194,0.63056,0.97431
316.996,39.5028,-0.69643,0.6209,0.97245
319.996,39.78857,-0.7439,0.61054,0.97056
322.996,40.07513,-0.79594,0.59852,0.96866
325.996,40.36174,-0.85069,0.58475,0.96673
328.996,40.64807,-0.91228,0.57199,0.96479
331.996,40.93521,-0.98296,0.55646,0.96282
334.996,41.22223,-1.05994,0.53803,0.96083
337.996,41.5096,-1.14313,0.51778,0.95883
340.996,41.79757,-1.2387,0.49219,0.9568
343.996,42.08437,-1.34267,0.4624,0.95476
346.996,42.37112,-1.45131,0.42958,0.9527
349.996,42.65775,-1.56457,0.38557,0.95062
352.996,42.94373,-1.67797,0.32837,0.94852
355.996,43.22997,-1.78934,0.26722,0.94641
358.996,43.51485,-1.89459,0.20325,0.94427
361.996,43.80093,-1.9884,0.1451,0.94212
364.996,44.08752,-2.0775,0.09951511,0.93996
367.996,44.37493,-2.15303,0.06525883,0.93778
370.996,44.66229,-2.21919,0.04712581,0.93558
373.996,44.95014,-2.27373,0.04397882,0.93337
376.996,45.23825,-2.32358,0.04532296,0.93114
379.996,45.52728,-2.36044,0.04940602,0.9289
382.996,45.81713,-2.39478,0.05520488,0.92665
385.996,46.108,-2.42378,0.06330027,0.92438
388.996,46.39953,-2.44902,0.0659393,0.9221
391.996,46.69114,-2.46943,0.0721176,0.9198
394.996,46.98357,-2.48936,0.06910317,0.91749
397.996,47.27514,-2.50778,0.06770367,0.91517
400.996,47.56755,-2.52365,0.06840172,0.91284
403.996,47.85944,-2.53852,0.06590552,0.91049
406.996,48.15133,-2.55469,0.06212066,0.90814
409.996,48.44348,-2.56847,0.07361369,0.90577
412.996,48.73638,-2.58087,0.0790378,0.90339
415.996,49.02842,-2.59472,0.07403646,0.901
418.996,49.3205,-2.60833,0.05712874,0.8986
421.996,49.61238,-2.62054,0.056342,0.8962
424.996,49.90547,-2.63236,0.07546552,0.89378
427.996,50.19777,-2.64512,0.06486865,0.89135
430.996,50.49083,-2.65784,0.05071123,0.88892
433.996,50.78331,-2.67176,0.05008831,0.88647
436.996,51.07581,-2.68319,0.05081771,0.88402
439.996,51.36844,-2.69522,0.04956081,0.88156
442.996,51.66118,-2.70878,0.04715939,0.87909
445.996,51.9532,-2.72274,0.04410755,0.87662
448.996,52.24635,-2.73707,0.04225796,0.87414
451.996,52.53964,-2.7499,0.04086178,0.87165
454.996,52.83324,-2.76352,0.03871581,0.86915
457.996,53.12783,-2.77712,0.03952513,0.86665
460.996,53.42167,-2.79031,0.03550426,0.86415
463.996,53.71626,-2.80778,0.03559612,0.86164
466.996,54.01106,-2.81891,0.03464703,0.85912
469.996,54.30545,-2.83591,0.03596194,0.8566
472.996,54.60027,-2.84963,0.03287329,0.85407
475.996,54.89555,-2.86543,0.0295443,0.85154
478.996,55.19083,-2.87949,0.02741707,0.84901
481.996,55.48616,-2.89376,0.02555549,0.84647
484.996,55.78264,-2.90833,0.02785797,0.84393
487.996,56.07823,-2.92267,0.02699805,0.84139
490.996,56.3739,-2.93569,0.05284456,0.83884
493.996,56.66963,-2.948,0.06274923,0.8363
496.996,56.96494,-2.95953,0.06295336,0.83375
499.996,57.26126,-2.96891,0.06332,0.83119
502.996,57.55817,-2.98072,0.05614914,0.82864
505.996,57.85535,-2.98873,0.05230543,0.82608
508.996,58.1531,-2.99847,0.053074,0.82353
511.996,58.45089,-3.00818,0.04931343,0.82097
514.996,58.74796,-3.01549,0.0573895,0.81841
517.996,59.04522,-3.02278,0.08164551,0.81585
520.996,59.34202,-3.02935,0.09027226,0.81329
523.996,59.63904,-3.0356,0.08833473,0.81073
526.996,59.93727,-3.04272,0.08277975,0.80818
529.996,60.23457,-3.04846,0.0724299,0.80562
532.996,60.53138,-3.05373,0.05644199,0.80306
535.996,60.829,-3.05965,0.05159419,0.80051
538.996,61.12677,-3.06458,0.04922711,0.79795
541.996,61.42447,-3.06986,0.03927971,0.7954
544.996,61.72226,-3.07249,0.02484028,0.79285
547.996,62.01886,-3.07772,-0.03438661,0.7903
550.996,62.31598,-3.0804,-0.08925691,0.78775
553.996,62.61429,-3.08304,-0.11808,0.78521
556.996,62.91303,-3.087,-0.13549,0.78267
559.996,63.2119,-3.09192,-0.15064,0.78013
562.996,63.51101,-3.09565,-0.15515,0.77759
565.996,63.81023,-3.09852,-0.16443,0.77506
568.996,64.10963,-3.09983,-0.17272,0.77253
571.996,64.41138,-3.1028,-0.18116,0.77
574.996,64.7132,-3.10541,-0.19267,0.76748
577.996,65.01484,-3.10806,-0.20302,0.76496
580.996,65.31611,-3.11037,-0.21829,0.76245
583.996,65.61768,-3.11168,-0.24547,0.75994
586.996,65.91915,-3.11366,-0.2587,0.75744
589.996,66.21928,-3.11432,-0.266,0.75494
592.996,66.51971,-3.11627,-0.2602,0.75244
595.996,66.82038,-3.11696,-0.25171,0.74995
598.996,67.12101,-3.12091,-0.23939,0.74747
601.996,67.42174,-3.12223,-0.22966,0.74499
604.996,67.72292,-3.12323,-0.21719,0.74251
607.996,68.02372,-3.12486,-0.2106,0.74005
610.996,68.32542,-3.12618,-0.20477,0.73758
613.996,68.62592,-3.12717,-0.19912,0.73513
616.996,68.92776,-3.12881,-0.19009,0.73268
619.996,69.22975,-3.13011,-0.18536,0.73023
622.996,69.53177,-3.1321,-0.18306,0.7278
625.996,69.83409,-3.1321,-0.17767,0.72537
628.996,70.13728,-3.13342,-0.17229,0.72294
631.996,70.43977,-3.13463,-0.16851,0.72053
634.996,70.74248,-3.13726,-0.15917,0.71812
637.996,71.04484,-3.13694,-0.15045,0.71571
640.996,71.34737,-3.1376,-0.1475,0.71332
643.996,71.64934,-3.1399,-0.14752,0.71093
646.996,71.9522,-3.14023,-0.14513,0.70855
649.996,72.25511,-3.1432,-0.14368,0.70617
652.996,72.55812,-3.14418,-0.13874,0.70381
655.996,72.86078,-3.14319,-0.13764,0.70145
658.996,73.16322,-3.14484,-0.13886,0.6991
661.996,73.46601,-3.14485,-0.13232,0.69675
664.996,73.7693,-3.14518,-0.13451,0.69442
667.996,74.07328,-3.1478,-0.12918,0.69209
670.996,74.37748,-3.14847,-0.13406,0.68977
673.996,74.68153,-3.14913,-0.13476,0.68746
676.996,74.98492,-3.15044,-0.13481,0.68516
679.996,75.28767,-3.15044,-0.1336,0.68287
682.996,75.59083,-3.15209,-0.13746,0.68058
685.996,75.89438,-3.15307,-0.13816,0.67831
688.996,76.19786,-3.15571,-0.13895,0.67604
691.996,76.50156,-3.15626,-0.14154,0.67378
694.996,76.80612,-3.15702,-0.14068,0.67153
697.996,77.10963,-3.1567,-0.1443,0.66929
700.996,77.41331,-3.16197,-0.15212,0.66706
701.796,77.49427,-3.16197,-0.154,0.66646

File: Polyisocyanurate_Spray_Foam_Insulation_STA_N2_10KData_241029_R2.csv
Temp/C,Time/min,Mass loss(subtr.)/mg,DSC(subtr.)/(mW/mg),Sensit./(uV/mW)
26.064,10.005,-0.0303,0.004257027,1.00325
29.064,11.34606,-0.03101614,0.10678,1.00486
32.064,11.78548,-0.03363687,0.15542,1.00643
35.064,12.15799,-0.03326578,0.18216,1.00796
38.064,12.50573,-0.03192718,0.20132,1.00943
41.064,12.84356,-0.03416188,0.21336,1.01087
44.064,13.17375,-0.03600552,0.22243,1.01225
47.064,13.4993,-0.03568051,0.23081,1.0136
50.064,13.81962,-0.03472829,0.23837,1.01489
53.064,14.13622,-0.03732588,0.24282,1.01615
56.064,14.44872,-0.03732599,0.24238,1.01735
59.064,14.75821,-0.03976659,0.24134,1.01852
62.064,15.06374,-0.03862304,0.23679,1.01963
65.064,15.3678,-0.04128451,0.23042,1.02071
68.064,15.66919,-0.03962238,0.22737,1.02174
71.064,15.9688,-0.03997402,0.22394,1.02272
74.064,16.26743,-0.04138266,0.22194,1.02366
77.064,16.56606,-0.04129,0.22156,1.02456
80.064,16.86377,-0.0426,0.22585,1.02541
83.064,17.16051,-0.04392069,0.22757,1.02622
86.064,17.45743,-0.04391,0.23083,1.02698
89.064,17.75271,-0.04523,0.2337,1.02771
92.064,18.04782,-0.0459,0.23635,1.02838
95.064,18.34166,-0.04653408,0.24156,1.02902
98.064,18.63445,-0.04787,0.24294,1.02961
101.064,18.9271,-0.0518194,0.24596,1.03016
104.064,19.21853,-0.05314001,0.2489,1.03066
107.064,19.50937,-0.05446,0.25151,1.03113
110.064,19.80086,-0.05577,0.25787,1.03155
113.064,20.09147,-0.05950228,0.26226,1.03193
116.064,20.38191,-0.06038753,0.26376,1.03226
119.064,20.67215,-0.06335227,0.26643,1.03256
122.064,20.96228,-0.06729514,0.26878,1.03281
125.064,21.25172,-0.06861989,0.26976,1.03302
128.064,21.54091,-0.07163685,0.27576,1.03319
131.064,21.82924,-0.07520402,0.27698,1.03332
134.064,22.11756,-0.07670442,0.28121,1.03341
137.064,22.40502,-0.07916,0.28477,1.03346
140.064,22.69228,-0.0818,0.2879,1.03347
143.064,22.97816,-0.08475257,0.28823,1.03343
146.064,23.26639,-0.08889611,0.29155,1.03336
149.064,23.55245,-0.08969938,0.29404,1.03325
152.064,23.83875,-0.09234,0.29997,1.0331
155.064,24.12466,-0.09595341,0.30469,1.03291
158.064,24.41047,-0.09891983,0.30792,1.03268
161.064,24.69691,-0.10156,0.31347,1.03241
164.064,24.98226,-0.10419,0.31872,1.0321
167.064,25.26777,-0.10781,0.3236,1.03176
170.064,25.55316,-0.10978,0.3267,1.03137
173.064,25.83878,-0.11341,0.33053,1.03095
176.064,26.1234,-0.1173,0.33349,1.03049
179.064,26.40919,-0.12164,0.33552,1.03
182.064,26.69415,-0.12819,0.34255,1.02947
185.064,26.97917,-0.13219,0.34724,1.0289
188.064,27.26361,-0.14003,0.35046,1.02829
191.064,27.54781,-0.14667,0.35596,1.02765
194.064,27.83177,-0.15337,0.36187,1.02698
197.064,28.11585,-0.16239,0.36533,1.02626
200.064,28.40001,-0.1705,0.37198,1.02552
203.064,28.6842,-0.18157,0.37842,1.02474
206.064,28.96818,-0.18994,0.38656,1.02392
209.064,29.25228,-0.20112,0.39399,1.02307
212.064,29.53638,-0.21322,0.40088,1.02218
215.064,29.82108,-0.22405,0.40506,1.02127
218.064,30.10479,-0.23692,0.40698,1.02031
221.064,30.38879,-0.24741,0.40549,1.01933
224.064,30.67229,-0.25668,0.40408,1.01831
227.064,30.95526,-0.26832,0.39846,1.01726
230.064,31.23802,-0.27641,0.39714,1.01618
233.064,31.52135,-0.28499,0.39527,1.01507
236.064,31.80422,-0.29112,0.39191,1.01392
239.064,32.08761,-0.30115,0.39031,1.01275
242.064,32.37129,-0.30739,0.3903,1.01154
245.064,32.65461,-0.312,0.39351,1.01031
248.064,32.93851,-0.31859,0.39664,1.00904
251.064,33.22299,-0.32117,0.39771,1.00774
254.064,33.50737,-0.32518,0.40296,1.00642
257.064,33.79197,-0.33007,0.40621,1.00506
260.064,34.07654,-0.33424,0.41075,1.00368
263.064,34.36119,-0.34099,0.41518,1.00227
266.064,34.64617,-0.34494,0.42069,1.00083
269.064,34.93178,-0.35284,0.42988,0.99936
272.064,35.21774,-0.35978,0.43835,0.99787
275.064,35.50404,-0.3691,0.4526,0.99634
278.064,35.79022,-0.37865,0.46893,0.9948
281.064,36.07711,-0.39302,0.49032,0.99322
284.064,36.36379,-0.40666,0.5091,0.99162
287.064,36.6499,-0.42255,0.53278,0.98999
290.064,36.93665,-0.44169,0.55389,0.98834
293.064,37.223,-0.46228,0.57206,0.98667
296.064,37.50897,-0.48625,0.58493,0.98497
299.064,37.79474,-0.51342,0.59388,0.98324
302.064,38.08023,-0.54145,0.60171,0.98149
305.064,38.36617,-0.57442,0.60206,0.97972
308.064,38.6521,-0.60946,0.59458,0.97792
311.064,38.93909,-0.64891,0.58458,0.97611
314.064,39.22544,-0.69168,0.57621,0.97427
317.064,39.5124,-0.73677,0.562,0.9724
320.064,39.79939,-0.78438,0.55085,0.97052
323.064,40.08608,-0.8353,0.53492,0.96862
326.064,40.373,-0.89261,0.52201,0.96669
329.064,40.6598,-0.95694,0.50773,0.96474
332.064,40.94698,-1.02754,0.48878,0.96278
335.064,41.23424,-1.10609,0.47044,0.96079
338.064,41.52066,-1.18906,0.44907,0.95878
341.064,41.80738,-1.28764,0.42422,0.95676
344.064,42.09368,-1.39024,0.39478,0.95471
347.064,42.37998,-1.50007,0.35968,0.95265
350.064,42.66488,-1.61454,0.31717,0.95057
353.064,42.94947,-1.72974,0.26226,0.94847
356.064,43.23395,-1.84286,0.19859,0.94636
359.064,43.519,-1.94642,0.13284,0.94423
362.064,43.80498,-2.04514,0.07254038,0.94208
365.064,44.09224,-2.13127,0.02498575,0.93991
368.064,44.38081,-2.20548,-0.005705692,0.93773
371.064,44.66981,-2.27171,-0.0205444,0.93553
374.064,44.96005,-2.32533,-0.02933247,0.93332
377.064,45.25034,-2.37249,-0.03109096,0.93109
380.064,45.54057,-2.41091,-0.03024414,0.92885
383.064,45.83099,-2.44317,-0.02747199,0.9266
386.064,46.12226,-2.47003,-0.02429448,0.92433
389.064,46.41379,-2.49482,-0.02305278,0.92204
392.064,46.70483,-2.51488,-0.02259385,0.91975
395.064,46.9952,-2.53624,-0.01542823,0.91744
398.064,47.28632,-2.55369,-0.002443881,0.91512
401.064,47.57729,-2.57014,-0.009769405,0.91278
404.064,47.86843,-2.58578,-0.01330528,0.91044
407.064,48.15961,-2.59967,-0.03140339,0.90808
410.064,48.45092,-2.61327,-0.01763742,0.90571
413.064,48.74277,-2.62687,-0.03584085,0.90334
416.064,49.03506,-2.6415,-0.04889578,0.90095
419.064,49.32784,-2.6522,-0.03094871,0.89855
422.064,49.62018,-2.6639,-0.04897883,0.89614
425.064,49.91258,-2.67852,-0.06115058,0.89372
428.064,50.20579,-2.69055,-0.05539964,0.8913
431.064,50.4988,-2.70235,-0.05297261,0.88886
434.064,50.79256,-2.71505,-0.03519363,0.88642
437.064,51.08645,-2.72726,-0.06290386,0.88396
440.064,51.38015,-2.73832,-0.05859616,0.8815
443.064,51.67354,-2.75129,-0.04846524,0.87904
446.064,51.96762,-2.76512,-0.05378817,0.87656
449.064,52.26189,-2.77742,-0.05265119,0.87408
452.064,52.55653,-2.78969,-0.04000217,0.87159
455.064,52.85118,-2.8051,-0.05336655,0.8691
458.064,53.14549,-2.81604,-0.05293396,0.8666
461.064,53.4392,-2.82957,-0.0483797,0.86409
464.064,53.73366,-2.8412,-0.03704755,0.86158
467.064,54.02779,-2.85681,-0.03511339,0.85906
470.064,54.32232,-2.87004,-0.03482942,0.85654
473.064,54.61718,-2.88207,-0.03356887,0.85402
476.064,54.91252,-2.89408,-0.03404547,0.85149
479.064,55.20785,-2.90782,-0.03637905,0.84895
482.064,55.50265,-2.91988,-0.03395637,0.84642
485.064,55.79799,-2.93251,-0.03612232,0.84388
488.064,56.09318,-2.94529,-0.03873601,0.84133
491.064,56.38874,-2.95591,-0.04138374,0.83879
494.064,56.68473,-2.96579,-0.03900904,0.83624
497.064,56.98136,-2.97232,-0.01976876,0.83369
500.064,57.27768,-2.98149,0.004288644,0.83114
503.064,57.57344,-2.99216,0.01845563,0.82858
506.064,57.87029,-2.99886,0.02210067,0.82603
509.064,58.16773,-3.00745,0.02717742,0.82347
512.064,58.465,-3.01497,0.02814135,0.82091
515.064,58.76202,-3.02299,0.02231714,0.81835
518.064,59.05932,-3.03133,0.01572561,0.81579
521.064,59.35563,-3.038,0.007171959,0.81324
524.064,59.65259,-3.04331,-0.002708946,0.81068
527.064,59.94934,-3.05019,0.006001895,0.80812
530.064,60.24638,-3.05779,-0.003348962,0.80556
533.064,60.5446,-3.06336,-0.01089184,0.803
536.064,60.84231,-3.06735,-0.0257335,0.80045
539.064,61.13724,-3.0726,-0.13882,0.79789
542.064,61.43576,-3.07787,-0.17672,0.79534
545.064,61.73468,-3.08249,-0.18532,0.79279
548.064,62.03341,-3.08677,-0.19748,0.79024
551.064,62.3319,-3.09051,-0.21338,0.7877
554.064,62.63053,-3.09468,-0.22161,0.78515
557.064,62.93049,-3.09698,-0.22733,0.78261
560.064,63.23073,-3.10127,-0.23621,0.78007
563.064,63.53071,-3.10388,-0.24983,0.77753
566.064,63.83076,-3.10915,-0.25904,0.775
569.064,64.13072,-3.11048,-0.26504,0.77247
572.064,64.43053,-3.11344,-0.27666,0.76995
575.064,64.73031,-3.11478,-0.29251,0.76743
578.064,65.02934,-3.12,-0.36057,0.76491
581.064,65.32688,-3.11982,-0.42546,0.76239
584.064,65.62734,-3.12245,-0.4327,0.75989
587.064,65.92781,-3.12377,-0.43966,0.75738
590.064,66.22879,-3.1264,-0.42965,0.75488
593.064,66.53037,-3.12772,-0.40611,0.75239
596.064,66.83205,-3.12911,-0.38358,0.7499
599.064,67.13378,-3.13167,-0.36297,0.74741
602.064,67.43549,-3.13298,-0.33856,0.74493
605.064,67.73643,-3.13519,-0.32547,0.74246
608.064,68.03739,-3.13727,-0.3231,0.73999
611.064,68.33996,-3.13858,-0.31639,0.73753
614.064,68.64253,-3.13991,-0.31336,0.73507
617.064,68.94473,-3.13991,-0.30705,0.73262
620.064,69.24693,-3.14254,-0.30212,0.73018
623.064,69.5488,-3.14386,-0.3019,0.72774
626.064,69.8511,-3.14353,-0.30055,0.72531
629.064,70.15319,-3.1455,-0.29826,0.72289
632.064,70.45614,-3.14782,-0.29216,0.72047
635.064,70.75783,-3.14781,-0.29045,0.71806
638.064,71.05955,-3.14912,-0.29111,0.71566
641.064,71.3603,-3.14814,-0.28799,0.71326
644.064,71.66189,-3.15078,-0.29172,0.71087
647.064,71.96341,-3.15341,-0.28652,0.70849
650.064,72.26505,-3.15374,-0.28263,0.70612
653.064,72.56821,-3.15341,-0.28066,0.70375
656.064,72.87126,-3.15472,-0.27986,0.70139
659.064,73.17465,-3.15604,-0.28023,0.69904
662.064,73.4783,-3.15703,-0.27997,0.6967
665.064,73.78153,-3.15736,-0.27878,0.69437
668.064,74.08395,-3.15867,-0.28211,0.69204
671.064,74.38795,-3.16076,-0.28303,0.68972
674.064,74.69123,-3.16077,-0.28351,0.68741
677.064,74.99455,-3.16241,-0.28672,0.68511
680.064,75.29792,-3.1634,-0.29027,0.68282
683.064,75.60125,-3.16406,-0.28827,0.68053
686.064,75.90478,-3.16472,-0.28997,0.67826
689.064,76.20786,-3.16506,-0.29335,0.67599
692.064,76.51052,-3.16603,-0.29559,0.67373
695.064,76.8132,-3.16833,-0.2981,0.67148
698.064,77.11594,-3.16965,-0.29866,0.66924
701.064,77.41904,-3.16999,-0.3038,0.66701
701.864,77.50114,-3.16999,-0.30092,0.66641