Folder: fsri_materials_database/01_Data/Overstuffed_Chair_Polyester_Fabric/Cone

File: Overstuffed_Chair_Polyester_Fabric_Cone_HF75Scalar_210325_R3.csv
LABORATORY,FSRI
TEST IDENT,Fabric_HF75_3
OPERATOR,Morrissey
MATERIAL,PE Microfiber Fabric
ORIENTATION,Horizontal
HEAT FLUX,75
SURF AREA,0.01
C FACTOR,0.0386052
SPEC HOLDER DIFF,-99.48
SPECIMEN MASS,1.96
SCAN TIME,0.25
O2 DELAY TIME,11
CO DELAY TIME,11
CO2 DELAY TIME,8
FLOW FACTOR,1
SCAN COUNT,646
TIME TO IGN,9.25
END OF TEST SCAN,166
END OF TEST TIME,41.5
TEST STATUS,1
PRE TEST CMT,test w/o frame or grid