Folder: fsri_materials_database/01_Data/Nylon_Bourke/STA/N2/10K_min (part 2)

File: Nylon_Bourke_STA_N2_10KData_250508_R3.csv
Temp./C,Time/min,DSC/(mW/mg),Mass loss/mg
50.0,0.0,0.839511,-0.0130201
52.5,0.325656,0.915043,-0.0151095
55,0.636435,0.981767,-0.0172599
57.5,0.937886,1.04675,-0.0172446
60,1.23093,1.09297,-0.0187618
62.5,1.51466,1.13975,-0.0199817
65,1.793,1.18408,-0.0212928
67.5,2.06645,1.21382,-0.0212897
70,2.33425,1.23879,-0.0226147
72.5,2.59702,1.25239,-0.0234614
75,2.86214,1.26414,-0.0225894
77.5,3.1209,1.25678,-0.0239742
80,3.37535,1.25933,-0.0265699
82.5,3.63446,1.24773,-0.02657
85,3.88696,1.24984,-0.0296264
87.5,4.13866,1.24602,-0.0291996
90,4.38566,1.24297,-0.0291778
92.5,4.63399,1.23668,-0.0305216
95,4.87943,1.2277,-0.0302885
97.5,5.12488,1.23418,-0.0306265
100,5.36694,1.23708,-0.030543
102.5,5.60849,1.23592,-0.03063
105,5.85015,1.24693,-0.03062
107.5,6.08962,1.25406,-0.0281879
110,6.33331,1.25866,-0.03063
112.5,6.57338,1.26033,-0.0306275
115,6.81367,1.2749,-0.0306299
117.5,7.05505,1.29175,-0.0283284
120,7.29439,1.29695,-0.02964
122.5,7.53515,1.32293,-0.0319906
125,7.77552,1.34369,-0.031622
127.5,8.01476,1.39997,-0.03062
130,8.25291,1.46747,-0.0258811
132.5,8.49211,1.56037,-0.0317184
135,8.73113,1.64053,-0.0317207
137.5,8.96708,1.66721,-0.0304
140,9.20569,1.64569,-0.03008
142.5,9.44041,1.63304,-0.03041
145,9.67639,1.60401,-0.0304
147.5,9.91267,1.59772,-0.0303611
150,10.145,1.59124,-0.03041
152.5,10.3839,1.57713,-0.0291019
155,10.6191,1.56019,-0.0290471
157.5,10.8536,1.51609,-0.02909
160,11.088,1.45669,-0.0283435
162.5,11.3216,1.34116,-0.03118
165,11.556,1.15217,-0.0285406
167.5,11.7878,0.986414,-0.0290826
170,12.0233,1.04344,-0.02898
172.5,12.2615,1.2509,-0.02931
175,12.4996,1.42264,-0.0281574
177.5,12.7366,1.52336,-0.0303113
180,12.9713,1.57737,-0.0289765
182.5,13.2072,1.62429,-0.02931
185,13.442,1.63856,-0.0297757
187.5,13.6773,1.66412,-0.02997
190,13.9115,1.6874,-0.0293123
192.5,14.1462,1.70117,-0.0293123
195,14.3791,1.71561,-0.03062
197.5,14.6146,1.72878,-0.0296287
200,14.8485,1.74868,-0.0309596
202.5,15.0824,1.76026,-0.02964
205,15.319,1.78944,-0.0297017
207.5,15.5537,1.80262,-0.02964
210,15.7885,1.82587,-0.0309492
212.5,16.024,1.84951,-0.03128
215,16.2593,1.87711,-0.0322691
217.5,16.4951,1.92273,-0.03227
220,16.7293,1.97156,-0.03228
222.5,16.9668,2.02493,-0.0306301
225,17.2025,2.07824,-0.0329325
227.5,17.4396,2.15681,-0.03161
230,17.6762,2.23319,-0.0326
232.5,17.912,2.32401,-0.03326
235,18.1498,2.41371,-0.03359
237.5,18.3867,2.52008,-0.03359
240,18.6245,2.63398,-0.03359
242.5,18.8614,2.73779,-0.0349099
245,19.0943,2.71426,-0.03392
247.5,19.3315,2.55232,-0.03424
250,19.5654,2.3129,-0.0368799
252.5,19.7997,2.21006,-0.036752
255,20.0345,2.18406,-0.0355701
257.5,20.2693,2.05248,-0.03721
260,20.504,1.95216,-0.037181
262.5,20.7399,1.93203,-0.0364327
265,20.9766,1.92176,-0.03645
267.5,21.2128,1.92087,-0.039069
270,21.4486,1.91425,-0.03842
272.5,21.6865,1.91424,-0.03842
275,21.9211,1.92189,-0.03842
277.5,22.1581,1.92099,-0.03974
280,22.3949,1.91969,-0.0400703
282.5,22.6322,1.91596,-0.0393648
285,22.8699,1.92597,-0.0397377
287.5,23.1056,1.92003,-0.0397404
290,23.3433,1.9218,-0.0417111
292.5,23.5818,1.91416,-0.0420404
295,23.8191,1.91249,-0.04149
297.5,24.0575,1.90605,-0.042174
300,24.2941,1.90055,-0.04446
302.5,24.5328,1.9009,-0.04314
305,24.7707,1.89815,-0.04446
307.5,25.0093,1.90187,-0.04446
310,25.2459,1.89503,-0.0442568
312.5,25.4859,1.89839,-0.0460866
315,25.7249,1.89436,-0.04446
317.5,25.9639,1.89243,-0.0457822
320,26.2026,1.89461,-0.0470901
322.5,26.4419,1.88942,-0.04676
325,26.6818,1.8993,-0.04918
327.5,26.9191,1.91136,-0.05017
330,27.1596,1.88883,-0.05017
332.5,27.3987,1.88231,-0.0502769
335,27.6377,1.8809,-0.0511602
337.5,27.8776,1.88305,-0.05116
340,28.1176,1.88792,-0.0514915
342.5,28.3569,1.88629,-0.05379
345,28.5971,1.89504,-0.05445
347.5,28.8372,1.89277,-0.0551099
350,29.0767,1.89369,-0.0551093
352.5,29.3178,1.90148,-0.0551101
355,29.559,1.91066,-0.0564298
357.5,29.799,1.91915,-0.0574099
360,30.0402,1.9305,-0.0590631
362.5,30.2813,1.94995,-0.0600475
365,30.5231,1.97156,-0.0609433
367.5,30.7638,2.00104,-0.06071
370,31.0066,2.03891,-0.0627038
372.5,31.2478,2.09024,-0.064006
375,31.4893,2.14707,-0.06532
377.5,31.7316,2.22191,-0.0666396
380,31.9752,2.31414,-0.0692799
382.5,32.2182,2.44392,-0.0719116
385,32.4611,2.60976,-0.0741013
387.5,32.7065,2.82444,-0.0815019
390,32.9515,3.06741,-0.0882972
392.5,33.1967,3.33956,-0.0969198
395,33.443,3.62215,-0.110825
397.5,33.6887,3.94585,-0.127581
400,33.9345,4.30603,-0.147086
402.5,34.182,4.77926,-0.177446
405,34.4311,5.31191,-0.214596
407.5,34.6821,5.95155,-0.265005
410,34.931,6.66487,-0.331133
412.5,35.1863,7.51813,-0.416658
415,35.4419,8.59019,-0.529828
417.5,35.7004,9.74819,-0.680055
420,35.9593,11.0842,-0.872322
422.5,36.2209,12.4963,-1.11998
425,36.4798,13.6258,-1.42601
427.5,36.7343,14.326,-1.78144
430,36.9806,14.4732,-2.17455
432.5,37.2206,13.8914,-2.58247
435,37.4475,12.5039,-2.97152
437.5,37.669,10.3206,-3.32103
440,37.8807,7.53737,-3.60247
442.5,38.0841,4.0975,-3.79009
445,38.2879,0.891556,-3.87079
447.5,38.5204,0.213896,-3.88754
450,38.7609,0.0847254,-3.89498
452.5,39.0029,0.0221291,-3.90091
455,39.2448,-0.0231292,-3.90352
457.5,39.4886,-0.045109,-3.90522
460,39.7332,-0.05751,-3.90618
462.5,39.9767,-0.0778394,-3.90815
465,40.2198,-0.0798672,-3.90859
467.5,40.4658,-0.0841415,-3.90947
470,40.7099,-0.0839099,-3.91113
472.5,40.9542,-0.088932,-3.91079
475,41.1987,-0.0925852,-3.91079
477.5,41.4446,-0.0874355,-3.91145
480,41.6897,-0.0788734,-3.91145
482.5,41.9353,-0.089691,-3.91112
485,42.1811,-0.103366,-3.90992
487.5,42.4264,-0.106799,-3.91013
490,42.6716,-0.120357,-3.91013
492.5,42.917,-0.113994,-3.91078
495,43.1631,-0.116104,-3.90949
497.5,43.4097,-0.117341,-3.9091
500,43.6548,-0.116703,-3.90946
502.5,43.9006,-0.117331,-3.90915
505,44.1465,-0.122311,-3.90913
507.5,44.3931,-0.119206,-3.90807
510,44.6392,-0.119057,-3.90848
512.5,44.8862,-0.119543,-3.90881
515,45.1329,-0.128776,-3.90881
517.5,45.3804,-0.133633,-3.91014
520,45.6271,-0.140506,-3.91045
522.5,45.875,-0.154013,-3.91013
525,46.1212,-0.161924,-3.9096
527.5,46.3692,-0.17802,-3.91134
530,46.6172,-0.185762,-3.91035
532.5,46.8651,-0.197105,-3.91035
535,47.1148,-0.206909,-3.91145
537.5,47.3675,-0.214332,-3.91145
540,47.6193,-0.221633,-3.91145
542.5,47.8728,-0.240575,-3.90874
545,48.1255,-0.245417,-3.91243
547.5,48.3766,-0.260935,-3.91177
550,48.6267,-0.275487,-3.91038
552.5,48.8755,-0.279939,-3.91045
555,49.124,-0.300761,-3.91309
557.5,49.3716,-0.320409,-3.91177
560,49.6187,-0.327269,-3.91309
562.5,49.8653,-0.326728,-3.91393
565,50.1137,-0.337086,-3.91277
567.5,50.3611,-0.342428,-3.91277
570,50.6094,-0.342948,-3.91276
572.5,50.8569,-0.33455,-3.91345
575,51.1044,-0.346023,-3.91342
577.5,51.3529,-0.326927,-3.91342
580,51.6009,-0.329905,-3.91309
582.5,51.8494,-0.312891,-3.90836
585,52.0988,-0.301908,-3.9154
587.5,52.3476,-0.279905,-3.91343
590,52.5974,-0.259712,-3.91441
592.5,52.8472,-0.240643,-3.91499
595,53.0958,-0.220022,-3.91309
597.5,53.345,-0.198156,-3.91473
600,53.5937,-0.183999,-3.91402
602.5,53.844,-0.172085,-3.91443
605,54.0933,-0.163509,-3.91309
607.5,54.343,-0.142513,-3.91309
610,54.593,-0.12535,-3.91243
612.5,54.8441,-0.103186,-3.9135
615,55.0954,-0.0779131,-3.91276
617.5,55.3459,-0.0566045,-3.91375
620,55.5966,-0.0526542,-3.91342
622.5,55.8465,-0.0529422,-3.91342
625,56.0965,-0.045542,-3.91243
627.5,56.346,-0.0371778,-3.91276
630,56.5951,-0.0468085,-3.91177
632.5,56.8444,-0.0382117,-3.91408
635,57.0941,-0.0313037,-3.91276
637.5,57.3432,-0.0385748,-3.91211
640,57.5927,-0.0364774,-3.91409
642.5,57.842,-0.0469956,-3.9131
645,58.0896,-0.0436211,-3.91178
647.5,58.3408,-0.0351265,-3.91243
650,58.5915,-0.0473281,-3.91375
652.5,58.8407,-0.0430256,-3.91276
655,59.0906,-0.0399286,-3.91396
657.5,59.3405,-0.0333233,-3.90925
660,59.5919,-0.0341867,-3.91155
662.5,59.8442,-0.0314946,-3.9099
665,60.0969,-0.0212843,-3.91485
667.5,60.3507,-0.0271597,-3.90925
670,60.6036,-0.0199777,-3.91109
672.5,60.8571,-0.022203,-3.90925
675,61.1092,-0.029412,-3.91057
677.5,61.3617,-0.0270302,-3.91091
680,61.612,-0.0349336,-3.91089
682.5,61.8639,-0.0481839,-3.91132
685,62.115,-0.057286,-3.91265
687.5,62.3658,-0.0605275,-3.91133
690,62.6153,-0.0649645,-3.91134
692.5,62.8677,-0.0701612,-3.91024
695,63.1183,-0.0795903,-3.91156
697.5,63.37,-0.0812279,-3.91024
700,63.6204,-0.0952682,-3.91156
702.5,63.8747,-0.10167,-3.9087
705,64.1258,-0.0989502,-3.91133
707.5,64.379,-0.102366,-3.91001
710,64.6307,-0.112948,-3.911
712.5,64.8826,-0.131069,-3.91133
715,65.1358,-0.133099,-3.91067
717.5,65.3861,-0.138199,-3.91001
720,65.6391,-0.135869,-3.91101
722.5,65.8901,-0.140325,-3.91054
725,66.1421,-0.151857,-3.90969
727.5,66.3932,-0.156399,-3.90816
730,66.6462,-0.149803,-3.91221
732.5,66.8975,-0.156123,-3.90958
735,67.1491,-0.160331,-3.91089
737.5,67.4014,-0.165732,-3.90957
740,67.6535,-0.16307,-3.91023
742.5,67.904,-0.16543,-3.91166
745,68.1583,-0.17782,-3.90903
747.5,68.4107,-0.184324,-3.91101
750,68.6639,-0.204801,-3.91215
752.5,68.9162,-0.212135,-3.91035
755,69.169,-0.208267,-3.90903
757.5,69.4241,-0.211462,-3.911
760,69.6759,-0.213859,-3.91067
762.5,69.9288,-0.22662,-3.91133
765,70.1819,-0.2235,-3.91068
767.5,70.4344,-0.2224,-3.91067
770,70.6855,-0.219196,-3.91066
772.5,70.9396,-0.225279,-3.90988
775,71.1923,-0.226585,-3.90969
777.5,71.4444,-0.223393,-3.90969
780,71.6961,-0.234648,-3.91254
782.5,71.9488,-0.23181,-3.9112
785,72.2025,-0.235421,-3.90918
787.5,72.4554,-0.229319,-3.91023
790,72.7087,-0.220423,-3.91089