Folder: fsri_materials_database/01_Data/Nylon_Bourke/STA/N2/10K_min

File: Nylon_Bourke_STA_N2_10KData_250505_R1.csv
Temp./C,Time/min,DSC/(mW/mg),Mass loss/mg
50.0,0.0,0.915112,-0.0338009
52.5,0.323433,0.98298,-0.0351927
55,0.635527,1.06425,-0.0366585
57.5,0.936978,1.11826,-0.0400875
60,1.22937,1.17393,-0.0389724
62.5,1.51447,1.22666,-0.0405095
65,1.79203,1.27509,-0.0431487
67.5,2.06447,1.31724,-0.04446
70,2.33397,1.3479,-0.0455406
72.5,2.59927,1.36779,-0.04587
75,2.86224,1.37859,-0.048307
77.5,3.12023,1.3785,-0.0496304
80,3.37787,1.3772,-0.0515708
82.5,3.63162,1.36406,-0.05226
85,3.88497,1.36709,-0.0538878
87.5,4.13578,1.36327,-0.0551355
90,4.38495,1.36324,-0.0552199
92.5,4.63054,1.36418,-0.0552191
95,4.87693,1.35652,-0.05617
97.5,5.12186,1.36661,-0.0564158
100,5.36438,1.37858,-0.058695
102.5,5.60758,1.37551,-0.057536
105,5.84828,1.39255,-0.0601652
107.5,6.09135,1.3983,-0.058337
110,6.33071,1.42251,-0.0569792
112.5,6.57311,1.43477,-0.0596409
115,6.81427,1.45406,-0.0609314
117.5,7.05489,1.46966,-0.0596055
120,7.29435,1.49418,-0.0618366
122.5,7.5338,1.52265,-0.0622392
125,7.774,1.54682,-0.0609299
127.5,8.01498,1.59131,-0.0612594
130,8.25395,1.66693,-0.0635848
132.5,8.49376,1.75875,-0.06225
135,8.73237,1.85565,-0.0622492
137.5,8.96981,1.87788,-0.06225
140,9.20712,1.86409,-0.0635472
142.5,9.44268,1.84241,-0.0622314
145,9.67728,1.82839,-0.06291
147.5,9.91372,1.81883,-0.0648781
150,10.1488,1.81359,-0.06356
152.5,10.3851,1.8077,-0.06258
155,10.6212,1.79241,-0.06423
157.5,10.8557,1.76145,-0.0649056
160,11.0892,1.69745,-0.0636536
162.5,11.3246,1.59228,-0.0638891
165,11.5559,1.40403,-0.06357
167.5,11.7912,1.2445,-0.06489
170,12.0268,1.3004,-0.0648733
172.5,12.2644,1.51382,-0.06642
175,12.5017,1.68491,-0.0670799
177.5,12.7393,1.78357,-0.0644503
180,12.9745,1.84088,-0.06576
182.5,13.2101,1.8778,-0.0653198
185,13.4451,1.9251,-0.06664
187.5,13.6805,1.94264,-0.06532
190,13.9154,1.96226,-0.06598
192.5,14.151,1.98139,-0.06598
195,14.3863,1.99815,-0.0669729
197.5,14.622,2.01915,-0.0682823
200,14.8576,2.03837,-0.06873
202.5,15.0933,2.06298,-0.0674111
205,15.3284,2.08187,-0.0674
207.5,15.5638,2.10626,-0.0673997
210,15.7996,2.1346,-0.06839
212.5,16.0353,2.16541,-0.0704103
215,16.2688,2.19534,-0.06906
217.5,16.5073,2.22642,-0.067634
220,16.7408,2.27567,-0.0687294
222.5,16.9786,2.3311,-0.06873
225,17.2132,2.40807,-0.06839
227.5,17.4481,2.47412,-0.0696
230,17.6874,2.55188,-0.0696
232.5,17.9235,2.64189,-0.0729575
235,18.1607,2.74202,-0.0710355
237.5,18.398,2.84345,-0.0710332
240,18.6362,2.97167,-0.07234
242.5,18.8732,3.0676,-0.0723617
245,19.1093,3.03289,-0.0736596
247.5,19.3441,2.87267,-0.0723472
250,19.577,2.64359,-0.0749806
252.5,19.8133,2.53498,-0.0749801
255,20.0484,2.49942,-0.0746583
257.5,20.283,2.35512,-0.07367
260,20.5186,2.29511,-0.076119
262.5,20.7557,2.27684,-0.07695
265,20.9921,2.28173,-0.07695
267.5,21.2289,2.27089,-0.07695
270,21.4674,2.27585,-0.07695
272.5,21.704,2.28695,-0.0776195
275,21.9419,2.29093,-0.0811903
277.5,22.1772,2.29517,-0.07706
280,22.4167,2.30624,-0.0775011
282.5,22.6548,2.30345,-0.076519
285,22.8906,2.30661,-0.07915
287.5,23.1303,2.30147,-0.0770114
290,23.3682,2.3087,-0.08113
292.5,23.6054,2.31357,-0.0811263
295,23.8422,2.33127,-0.08047
297.5,24.082,2.31298,-0.0804707
300,24.3202,2.31135,-0.0818046
302.5,24.5561,2.31459,-0.0841095
305,24.795,2.31209,-0.0849193
307.5,25.0338,2.31716,-0.08366
310,25.2719,2.31164,-0.08366
312.5,25.51,2.30833,-0.08531
315,25.7491,2.3043,-0.08498
317.5,25.9873,2.30393,-0.0849801
320,26.2263,2.29899,-0.0863791
322.5,26.465,2.29486,-0.0864004
325,26.7048,2.30169,-0.0877098
327.5,26.9441,2.29107,-0.0877145
330,27.1841,2.279,-0.08837
332.5,27.4235,2.28899,-0.08969
335,27.6643,2.29797,-0.09134
337.5,27.905,2.2996,-0.08969
340,28.1448,2.29953,-0.0903782
342.5,28.3848,2.31394,-0.09167
345,28.6261,2.31215,-0.093615
347.5,28.8652,2.3227,-0.0916706
350,29.1061,2.32804,-0.0942891
352.5,29.347,2.34831,-0.09562
355,29.5878,2.35181,-0.09694
357.5,29.8292,2.36647,-0.0959498
360,30.0697,2.39416,-0.0969363
362.5,30.3122,2.41305,-0.09958
365,30.5534,2.44439,-0.0995813
367.5,30.7954,2.46901,-0.0995578
370,31.038,2.51843,-0.100887
372.5,31.2795,2.57593,-0.101538
375,31.5223,2.64648,-0.105171
377.5,31.7651,2.74253,-0.10682
380,32.0089,2.8531,-0.10945
382.5,32.2513,3.00802,-0.111354
385,32.4957,3.21675,-0.116197
387.5,32.7408,3.4461,-0.124482
390,32.9842,3.6824,-0.128881
392.5,33.2311,3.97504,-0.140303
395,33.4768,4.2729,-0.154038
397.5,33.7227,4.60217,-0.173267
400,33.9693,4.98347,-0.197945
402.5,34.2169,5.43615,-0.231189
405,34.4666,5.91218,-0.269618
407.5,34.7157,6.57759,-0.324433
410,34.9672,7.28744,-0.391873
412.5,35.2209,8.21269,-0.483716
415,35.4767,9.19102,-0.599035
417.5,35.7332,10.3616,-0.750775
420,35.992,11.5282,-0.945212
422.5,36.2517,12.7698,-1.18835
425,36.5081,13.7756,-1.48698
427.5,36.7618,14.5035,-1.83406
430,37.0082,14.583,-2.21391
432.5,37.2468,13.9971,-2.61151
435,37.478,12.7608,-2.9902
437.5,37.6996,10.8015,-3.33671
440,37.9133,8.07338,-3.61893
442.5,38.12,4.92052,-3.81293
445,38.3234,1.49145,-3.90138
447.5,38.555,0.740369,-3.92486
450,38.7954,0.602428,-3.9341
452.5,39.0384,0.545729,-3.9398
455,39.2819,0.513012,-3.94301
457.5,39.5257,0.484705,-3.94513
460,39.7705,0.46833,-3.94691
462.5,40.0147,0.454701,-3.94822
465,40.2589,0.432327,-3.95086
467.5,40.5038,0.412487,-3.94954
470,40.7492,0.413443,-3.95053
472.5,40.9933,0.399278,-3.95053
475,41.2366,0.400606,-3.95023
477.5,41.4849,0.402299,-3.95251
480,41.7287,0.405598,-3.95349
482.5,41.9755,0.40357,-3.95129
485,42.2187,0.400061,-3.95152
487.5,42.4668,0.408113,-3.9502
490,42.7138,0.403006,-3.95182
492.5,42.9601,0.388936,-3.94889
495,43.206,0.39118,-3.95119
497.5,43.4537,0.386825,-3.95119
500,43.7001,0.391121,-3.95227
502.5,43.946,0.393848,-3.95152
505,44.1937,0.378499,-3.94968
507.5,44.4393,0.390214,-3.95455
510,44.6861,0.384261,-3.95096
512.5,44.9332,0.391845,-3.95097
515,45.1798,0.38878,-3.95229
517.5,45.4288,0.386873,-3.95031
520,45.6754,0.379676,-3.95031
522.5,45.9227,0.367514,-3.95293
525,46.1705,0.364933,-3.95195
527.5,46.4189,0.35528,-3.95195
530,46.6667,0.354971,-3.95195
532.5,46.915,0.350831,-3.95163
535,47.1621,0.34393,-3.95031
537.5,47.4107,0.351733,-3.95031
540,47.6589,0.323313,-3.95295
542.5,47.9067,0.330509,-3.95295
545,48.155,0.33348,-3.95018
547.5,48.4036,0.329403,-3.95164
550,48.6519,0.325561,-3.95262
552.5,48.9,0.310028,-3.9513
555,49.1477,0.311109,-3.95297
557.5,49.3961,0.300374,-3.9529
560,49.6444,0.298583,-3.95426
562.5,49.8934,0.296152,-3.95163
565,50.1428,0.306353,-3.95162
567.5,50.3936,0.296668,-3.95328
570,50.6421,0.289134,-3.95295
572.5,50.8914,0.288529,-3.95295
575,51.1425,0.266857,-3.9545
577.5,51.3892,0.260605,-3.95426
580,51.6405,0.240172,-3.95496
582.5,51.8902,0.242297,-3.95261
585,52.1392,0.22468,-3.95672
587.5,52.3894,0.214684,-3.95492
590,52.6395,0.20062,-3.95441
592.5,52.8891,0.197491,-3.95623
595,53.139,0.172243,-3.95393
597.5,53.3897,0.168145,-3.95495
600,53.6393,0.145098,-3.9547
602.5,53.8898,0.150327,-3.95294
605,54.1387,0.141984,-3.95328
607.5,54.3907,0.144808,-3.95296
610,54.6414,0.142805,-3.95426
612.5,54.893,0.1411,-3.95415
615,55.1448,0.156035,-3.95357
617.5,55.3956,0.162238,-3.95513
620,55.6474,0.161379,-3.95283
622.5,55.8978,0.169241,-3.95152
625,56.153,0.180334,-3.95174
627.5,56.4074,0.176429,-3.95223
630,56.662,0.180226,-3.95372
632.5,56.9166,0.174202,-3.95108
635,57.1693,0.172832,-3.95108
637.5,57.4219,0.171702,-3.95076
640,57.6737,0.162842,-3.95075
642.5,57.9243,0.161521,-3.9547
645,58.1731,0.157843,-3.95208
647.5,58.4257,0.161738,-3.95338
650,58.6757,0.167238,-3.9547
652.5,58.9267,0.168277,-3.95075
655,59.1773,0.17485,-3.95239
657.5,59.43,0.18376,-3.9524
660,59.6832,0.180938,-3.95438
662.5,59.9354,0.179551,-3.95349
665,60.1874,0.191401,-3.95208
667.5,60.4397,0.19587,-3.95207
670,60.6923,0.19621,-3.95125
672.5,60.9456,0.19709,-3.95174
675,61.1992,0.204694,-3.95305
677.5,61.4517,0.206959,-3.95305
680,61.7064,0.228677,-3.94944
682.5,61.9601,0.229887,-3.95209
685,62.2146,0.225887,-3.95338
687.5,62.468,0.219607,-3.95207
690,62.7206,0.219763,-3.95207
692.5,62.973,0.208306,-3.95372
695,63.2242,0.196745,-3.95372
697.5,63.4763,0.191366,-3.9524
700,63.7274,0.174438,-3.95503
702.5,63.9785,0.151682,-3.9524
705,64.2327,0.144097,-3.95239
707.5,64.4845,0.12607,-3.95272
710,64.7366,0.117453,-3.9527
712.5,64.9897,0.100553,-3.9524
715,65.2428,0.0897464,-3.95273
717.5,65.4935,0.0754868,-3.95068
720,65.7453,0.0629078,-3.95272
722.5,65.9984,0.0417904,-3.95339
725,66.2507,0.0328707,-3.95273
727.5,66.502,0.0239958,-3.95223
730,66.7554,-0.0037403,-3.95075
732.5,67.0081,-0.0136,-3.95076
735,67.2614,-0.0263823,-3.95075
737.5,67.5155,-0.0286602,-3.95075
740,67.7692,-0.029767,-3.94976
742.5,68.0229,-0.03783,-3.95202
745,68.2767,-0.0380802,-3.9522
747.5,68.5311,-0.0556471,-3.94922
750,68.7847,-0.0661089,-3.949
752.5,69.0378,-0.0812096,-3.95031
755,69.2915,-0.0865234,-3.94866
757.5,69.5441,-0.0982915,-3.95031
760,69.7975,-0.0982362,-3.9513
762.5,70.0496,-0.104709,-3.94998
765,70.3051,-0.100925,-3.9513
767.5,70.5587,-0.107044,-3.95229
770,70.8119,-0.104257,-3.94957
772.5,71.0642,-0.105359,-3.95261
775,71.3172,-0.104911,-3.95261
777.5,71.5697,-0.0986655,-3.95129
780,71.8247,-0.114503,-3.95261
782.5,72.0769,-0.117546,-3.9513
785,72.3297,-0.115708,-3.95263
787.5,72.5852,-0.116797,-3.95163
790,72.8379,-0.114356,-3.95262

File: Nylon_Bourke_STA_N2_10KData_250506_R2.csv
Temp./C,Time/min,DSC/(mW/mg),Mass loss/mg
50.0,0.0,0.962591,-0.0229742
52.5,0.326125,1.03432,-0.0250135
55,0.633231,1.10517,-0.0261253
57.5,0.939313,1.17271,-0.0277807
60,1.2319,1.23045,-0.0300804
62.5,1.51583,1.27404,-0.0299658
65,1.79535,1.32177,-0.0329255
67.5,2.06846,1.35713,-0.0339444
70,2.33714,1.39051,-0.0366104
72.5,2.6025,1.41702,-0.0365613
75,2.86474,1.42872,-0.03656
77.5,3.12493,1.42177,-0.0378736
80,3.38189,1.42947,-0.0398643
82.5,3.6362,1.42912,-0.0406134
85,3.88874,1.42207,-0.0405806
87.5,4.14076,1.41277,-0.0411697
90,4.3885,1.40923,-0.0427225
92.5,4.63614,1.40533,-0.0451202
95,4.88335,1.40617,-0.0438
97.5,5.12741,1.39259,-0.0428133
100,5.3699,1.4065,-0.0451441
102.5,5.61367,1.40494,-0.04512
105,5.85536,1.41002,-0.0449001
107.5,6.09858,1.42056,-0.04655
110,6.33954,1.43395,-0.0452368
112.5,6.58033,1.43429,-0.0452301
115,6.82124,1.44401,-0.0452361
117.5,7.06074,1.46495,-0.0454131
120,7.30217,1.47976,-0.0465539
122.5,7.54263,1.50214,-0.0465521
125,7.78122,1.53661,-0.0463607
127.5,8.02194,1.58255,-0.0465499
130,8.26065,1.65097,-0.0472101
132.5,8.49898,1.74551,-0.04786
135,8.7388,1.82001,-0.0465443
137.5,8.97708,1.84564,-0.0463102
140,9.21314,1.82064,-0.0476445
142.5,9.44928,1.80206,-0.04786
145,9.68663,1.77569,-0.04787
147.5,9.92268,1.76647,-0.04787
150,10.1587,1.75996,-0.0478692
152.5,10.3947,1.76449,-0.04786
155,10.6299,1.74471,-0.0474945
157.5,10.8642,1.70053,-0.0495201
160,11.0989,1.64319,-0.0482
162.5,11.3321,1.5291,-0.04852
165,11.5663,1.35277,-0.0482
167.5,11.7982,1.17064,-0.0481905
170,12.0342,1.20228,-0.0482
172.5,12.2731,1.4198,-0.0495042
175,12.5101,1.59892,-0.04852
177.5,12.7473,1.70244,-0.0482
180,12.9844,1.76727,-0.0482
182.5,13.2211,1.80373,-0.04951
185,13.4532,1.84171,-0.0495321
187.5,13.6912,1.85239,-0.04951
190,13.9266,1.87222,-0.0492041
192.5,14.1609,1.90001,-0.0498012
195,14.3962,1.91862,-0.0511594
197.5,14.6317,1.92937,-0.0495165
200,14.8665,1.94624,-0.0495101
202.5,15.102,1.96283,-0.0514921
205,15.3367,1.98216,-0.0501698
207.5,15.5716,2,-0.0505037
210,15.807,2.01954,-0.0505099
212.5,16.0418,2.04468,-0.0531418
215,16.2786,2.08139,-0.0534662
217.5,16.5144,2.11791,-0.05347
220,16.7481,2.16134,-0.0528096
222.5,16.9855,2.21987,-0.0531703
225,17.2219,2.28186,-0.0534041
227.5,17.4571,2.35897,-0.05643
230,17.6949,2.43802,-0.05511
232.5,17.9317,2.51767,-0.0564298
235,18.1691,2.60837,-0.05643
237.5,18.4065,2.71202,-0.0574199
240,18.6431,2.84118,-0.05742
242.5,18.8804,2.94399,-0.05643
245,19.117,2.92336,-0.05774
247.5,19.3514,2.76609,-0.05774
250,19.5849,2.52992,-0.05906
252.5,19.8207,2.41116,-0.05906
255,20.055,2.37628,-0.060382
257.5,20.2894,2.23766,-0.06159
260,20.5246,2.14708,-0.0615804
262.5,20.7609,2.12817,-0.0612695
265,20.997,2.13486,-0.06225
267.5,21.2336,2.12797,-0.0616128
270,21.4693,2.12655,-0.06291
272.5,21.7034,2.13483,-0.06291
275,21.9433,2.14103,-0.0631022
277.5,22.1811,2.14394,-0.06653
280,22.417,2.15179,-0.0652124
282.5,22.655,2.13025,-0.06456
285,22.8934,2.1454,-0.06686
287.5,23.1302,2.13657,-0.06686
290,23.3684,2.14271,-0.0681732
292.5,23.6064,2.14562,-0.06817
295,23.8433,2.14771,-0.0696903
297.5,24.0804,2.13929,-0.0708102
300,24.3183,2.13869,-0.06949
302.5,24.5573,2.13206,-0.0711399
305,24.7949,2.13977,-0.0722273
307.5,25.0331,2.14208,-0.0718
310,25.269,2.13274,-0.074497
312.5,25.5089,2.14464,-0.0757563
315,25.7476,2.13596,-0.0741191
317.5,25.9858,2.13158,-0.07378
320,26.2251,2.15068,-0.07476
322.5,26.4645,2.16131,-0.0747694
325,26.7026,2.15592,-0.0760908
327.5,26.9415,2.1609,-0.0777246
330,27.1814,2.15844,-0.07773
332.5,27.4197,2.1439,-0.0764222
335,27.659,2.13522,-0.0796937
337.5,27.8988,2.1297,-0.0783809
340,28.1369,2.13599,-0.08003
342.5,28.3788,2.12025,-0.0839648
345,28.6176,2.13479,-0.0839898
347.5,28.8584,2.13065,-0.0826672
350,29.099,2.15119,-0.08135
352.5,29.3393,2.1538,-0.0853139
355,29.5794,2.16932,-0.0845438
357.5,29.82,2.1813,-0.08629
360,30.0601,2.19642,-0.0903744
362.5,30.3016,2.23066,-0.0892625
365,30.5437,2.26073,-0.0906849
367.5,30.786,2.30009,-0.091753
370,31.0265,2.35075,-0.0920004
372.5,31.2682,2.41114,-0.092
375,31.5117,2.49056,-0.0946391
377.5,31.7545,2.59843,-0.0966854
380,31.9979,2.7363,-0.102539
382.5,32.2409,2.93787,-0.10386
385,32.4845,3.13438,-0.104905
387.5,32.7299,3.35,-0.11451
390,32.9754,3.64356,-0.124102
392.5,33.2209,3.90462,-0.133784
395,33.466,4.2276,-0.155379
397.5,33.7135,4.59086,-0.172495
400,33.962,5.0202,-0.198352
402.5,34.2105,5.53496,-0.232063
405,34.4604,6.06798,-0.277449
407.5,34.709,6.78394,-0.335389
410,34.9658,7.73087,-0.411752
412.5,35.2197,8.70229,-0.508133
415,35.4771,9.88856,-0.644462
417.5,35.736,11.1714,-0.814546
420,35.9971,12.4836,-1.03959
422.5,36.2566,13.7616,-1.31356
425,36.5134,14.7535,-1.64724
427.5,36.7638,15.1439,-2.02685
430,37.0069,14.869,-2.43039
432.5,37.2417,13.8135,-2.83487
435,37.4642,11.9443,-3.20809
437.5,37.6789,9.34656,-3.52035
440,37.8838,6.01494,-3.75121
442.5,38.0807,1.97545,-3.87149
445,38.3036,0.526619,-3.90772
447.5,38.5416,0.275362,-3.92126
450,38.7837,0.182148,-3.9265
452.5,39.0255,0.120402,-3.93116
455,39.2696,0.0816206,-3.93571
457.5,39.5146,0.0539439,-3.93428
460,39.7591,0.0341878,-3.93811
462.5,40.0051,0.014574,-3.93967
465,40.2503,-0.00875248,-3.93956
467.5,40.495,-0.032759,-3.94285
470,40.7399,-0.0508633,-3.94416
472.5,40.9847,-0.051606,-3.94444
475,41.2303,-0.0570687,-3.94307
477.5,41.4761,-0.0736588,-3.94341
480,41.7204,-0.0695834,-3.94109
482.5,41.967,-0.076755,-3.94378
485,42.2127,-0.0880175,-3.94528
487.5,42.4577,-0.0842334,-3.94505
490,42.7042,-0.0936068,-3.94505
492.5,42.95,-0.0850397,-3.94362
495,43.1967,-0.102925,-3.94099
497.5,43.4429,-0.106058,-3.94362
500,43.6893,-0.0987664,-3.9423
502.5,43.9363,-0.0927219,-3.94493
505,44.1833,-0.120344,-3.9423
507.5,44.4312,-0.115195,-3.94522
510,44.6786,-0.119396,-3.94462
512.5,44.9254,-0.119316,-3.94131
515,45.1716,-0.127374,-3.94394
517.5,45.4185,-0.130306,-3.9445
520,45.6653,-0.130259,-3.94252
522.5,45.9129,-0.125878,-3.94569
525,46.1604,-0.121817,-3.94417
527.5,46.4081,-0.123077,-3.94285
530,46.6554,-0.128558,-3.9445
532.5,46.9032,-0.108252,-3.94174
535,47.149,-0.10714,-3.94438
537.5,47.3989,-0.0946916,-3.94438
540,47.6468,-0.0947209,-3.94294
542.5,47.8939,-0.0924331,-3.94273
545,48.1417,-0.0833424,-3.94405
547.5,48.3888,-0.0786927,-3.94531
550,48.6374,-0.0832359,-3.94306
552.5,48.8846,-0.0752345,-3.94164
555,49.1324,-0.0830567,-3.94636
557.5,49.3814,-0.0937693,-3.94625
560,49.6286,-0.0926009,-3.94559
562.5,49.8777,-0.0975921,-3.94263
565,50.1237,-0.0902793,-3.94966
567.5,50.3734,-0.0923198,-3.94361
570,50.6211,-0.0867743,-3.94625
572.5,50.8676,-0.098382,-3.94494
575,51.1162,-0.102195,-3.94757
577.5,51.3651,-0.0848548,-3.9488
580,51.6129,-0.0985556,-3.9452
582.5,51.861,-0.101461,-3.95032
585,52.1101,-0.0741638,-3.9491
587.5,52.3588,-0.0878574,-3.94662
590,52.607,-0.0865593,-3.94855
592.5,52.8566,-0.0762068,-3.94691
595,53.1057,-0.061766,-3.94691
597.5,53.3541,-0.0580647,-3.94823
600,53.6039,-0.0404303,-3.94559
602.5,53.853,-0.0438321,-3.94812
605,54.1037,-0.0369259,-3.94845
607.5,54.3516,-0.0218263,-3.94845
610,54.6025,-0.00810522,-3.94516
612.5,54.8529,-0.00500291,-3.94911
615,55.1031,0.00309037,-3.94715
617.5,55.353,0.0091624,-3.9482
620,55.6028,0.0231229,-3.94713
622.5,55.8523,0.025054,-3.94516
625,56.1021,0.0441499,-3.94647
627.5,56.3522,0.0628486,-3.94647
630,56.6029,0.0609544,-3.94176
632.5,56.8545,0.0663347,-3.94739
635,57.1044,0.0666396,-3.94504
637.5,57.3551,0.0597592,-3.94953
640,57.6058,0.0707217,-3.94219
642.5,57.8541,0.0570688,-3.94624
645,58.1062,0.0676035,-3.94513
647.5,58.3567,0.0595042,-3.94658
650,58.6069,0.0618405,-3.94615
652.5,58.8565,0.0683744,-3.94516
655,59.1076,0.0692549,-3.94384
657.5,59.358,0.0612953,-3.94614
660,59.6092,0.0489065,-3.94811
662.5,59.8586,0.0585336,-3.94592
665,60.1094,0.05087,-3.94454
667.5,60.3576,0.0527076,-3.94774
670,60.6111,0.0464196,-3.94372
672.5,60.8613,0.0434076,-3.9423
675,61.1117,0.0328805,-3.94724
677.5,61.3641,0.0406685,-3.94395
680,61.615,0.0456137,-3.94822
682.5,61.8677,0.0431503,-3.94373
685,62.119,0.0390525,-3.94288
687.5,62.3708,0.0431029,-3.94655
690,62.6219,0.0448755,-3.94658
692.5,62.8728,0.0519296,-3.9479
695,63.1259,0.0472828,-3.94658
697.5,63.3769,0.0353214,-3.94658
700,63.6303,0.0431431,-3.94272
702.5,63.8837,0.0352843,-3.94691
705,64.1342,0.0356606,-3.94439
707.5,64.3881,0.0256041,-3.94889
710,64.6411,0.0209662,-3.9443
712.5,64.8946,0.0112634,-3.94862
715,65.146,0.0106507,-3.94669
717.5,65.3992,-0.000872523,-3.94403
720,65.6479,0.00450643,-3.9467
722.5,65.9033,0.00290125,-3.94801
725,66.1566,0.000349441,-3.94867
727.5,66.4095,0.00111335,-3.94233
730,66.6627,0.00280699,-3.948
732.5,66.9153,-0.00170409,-3.94666
735,67.1673,-0.00711775,-3.94669
737.5,67.42,-0.0244586,-3.94795
740,67.6724,-0.0135851,-3.94669
742.5,67.9256,-0.0229535,-3.94838
745,68.1797,-0.0239277,-3.94881
747.5,68.4324,-0.0361644,-3.94889
750,68.6857,-0.0299921,-3.94756
752.5,68.9393,-0.031685,-3.94625
755,69.1926,-0.0341074,-3.94493
757.5,69.446,-0.0306119,-3.94738
760,69.6966,-0.031833,-3.94625
762.5,69.9506,-0.0314938,-3.9479
765,70.2031,-0.0431,-3.94724
767.5,70.4552,-0.0306518,-3.94581
770,70.7078,-0.0405466,-3.94724
772.5,70.9611,-0.0361104,-3.94548
775,71.213,-0.0411949,-3.94813
777.5,71.4668,-0.0329746,-3.94943
780,71.7196,-0.0397166,-3.94779
782.5,71.9723,-0.0359269,-3.94592
785,72.226,-0.0449227,-3.94889
787.5,72.4787,-0.040406,-3.94851
790,72.7328,-0.0377824,-3.94465