Folder: fsri_materials_database/01_Data/Nylon_Bourke/STA/N2/30K_min (part 2)

File: Nylon_Bourke_STA_N2_30KData_250507_R3.csv
Temp./C,Time/min,DSC/(mW/mg),Mass loss/mg
50.0,0.0,1.66992,-0.0107435
52.5,0.146256,1.93891,-0.0140874
55,0.280439,2.1684,-0.0150519
57.5,0.407814,2.38743,-0.0142067
60,0.527443,2.58908,-0.0160766
62.5,0.642038,2.76893,-0.0181492
65,0.751996,2.94632,-0.020181
67.5,0.860227,3.10823,-0.0201361
70,0.964905,3.2456,-0.0211025
72.5,1.06823,3.3956,-0.0234464
75,1.16958,3.50875,-0.0251908
77.5,1.26924,3.61086,-0.0251615
80,1.36755,3.70149,-0.0263221
82.5,1.46419,3.77799,-0.0270926
85,1.55903,3.8473,-0.0280191
87.5,1.65347,3.90185,-0.0302739
90,1.74666,3.94185,-0.0306931
92.5,1.83772,3.97793,-0.031781
95,1.92957,4.01405,-0.0334309
97.5,2.01917,4.04978,-0.0349136
100,2.10839,4.06804,-0.0349134
102.5,2.19747,4.07854,-0.035915
105,2.28538,4.09042,-0.034901
107.5,2.37319,4.10304,-0.0362883
110,2.45993,4.11653,-0.0362304
112.5,2.54665,4.12583,-0.0362313
115,2.63284,4.14982,-0.0367703
117.5,2.71828,4.17868,-0.0388666
120,2.80393,4.20556,-0.0388731
122.5,2.88933,4.24466,-0.03886
125,2.97341,4.31206,-0.0401671
127.5,3.0571,4.39544,-0.0388699
130,3.14105,4.52736,-0.0388598
132.5,3.22417,4.70756,-0.0388603
135,3.30715,4.91569,-0.0388601
137.5,3.3897,5.11867,-0.0388682
140,3.47135,5.26268,-0.03887
142.5,3.55249,5.33706,-0.0390506
145,3.63281,5.36448,-0.04019
147.5,3.71327,5.38995,-0.0388698
150,3.79267,5.40676,-0.0385207
152.5,3.87187,5.42098,-0.0388518
155,3.95101,5.4433,-0.03886
157.5,4.03012,5.46955,-0.0398128
160,4.10871,5.47899,-0.0411651
162.5,4.18735,5.50003,-0.03985
165,4.26533,5.49383,-0.03985
167.5,4.34324,5.48972,-0.03985
170,4.42109,5.45513,-0.0402842
172.5,4.498,5.39398,-0.04117
175,4.57572,5.26851,-0.04117
177.5,4.65237,5.10007,-0.0398518
180,4.72823,4.85622,-0.03985
182.5,4.8043,4.61108,-0.03985
185,4.88011,4.46024,-0.0405104
187.5,4.95645,4.53786,-0.04051
190,5.03346,4.75459,-0.04051
192.5,5.11047,5.03701,-0.0405098
195,5.1873,5.31337,-0.0395201
197.5,5.26399,5.55654,-0.03952
200,5.33984,5.73952,-0.0395509
202.5,5.41605,5.92016,-0.0421601
205,5.49184,6.04726,-0.04216
207.5,5.56767,6.16429,-0.0421545
210,5.64314,6.28089,-0.0405101
212.5,5.71815,6.38644,-0.04018
215,5.79379,6.50041,-0.04018
217.5,5.86915,6.61145,-0.0401275
220,5.9449,6.74495,-0.0415
222.5,6.0199,6.89626,-0.0415
225,6.0949,7.06339,-0.0415
227.5,6.17049,7.27553,-0.0415
230,6.24605,7.4946,-0.0415
232.5,6.32059,7.75775,-0.0421603
235,6.39677,8.06184,-0.0408227
237.5,6.4725,8.37597,-0.0408296
240,6.54784,8.70801,-0.04149
242.5,6.62286,8.9044,-0.0428441
245,6.69682,8.94457,-0.0424548
247.5,6.77078,8.71649,-0.0415
250,6.84325,8.29448,-0.0414965
252.5,6.91603,7.88746,-0.0418297
255,6.98899,7.57335,-0.04183
257.5,7.06206,7.33503,-0.0426135
260,7.13516,7.18633,-0.0426806
262.5,7.20895,7.09307,-0.0432803
265,7.28183,7.03513,-0.04446
267.5,7.35588,6.99771,-0.04446
270,7.42992,6.98463,-0.0446713
272.5,7.50344,6.98349,-0.04512
275,7.57716,6.98356,-0.04512
277.5,7.65114,6.99324,-0.04512
280,7.72502,6.99598,-0.0439297
282.5,7.79868,6.99981,-0.0457801
285,7.87267,6.99956,-0.0471104
287.5,7.94649,7.0121,-0.0471
290,8.02039,7.01521,-0.0484135
292.5,8.09407,7.01269,-0.0478947
295,8.16826,7.01202,-0.04709
297.5,8.24214,7.00893,-0.0493937
300,8.31608,7.00589,-0.0497646
302.5,8.38974,6.99948,-0.05072
305,8.46379,6.98414,-0.05072
307.5,8.53704,6.99454,-0.0520489
310,8.61125,6.97753,-0.05204
312.5,8.68618,6.97392,-0.0508017
315,8.7599,6.98252,-0.05203
317.5,8.83402,6.97981,-0.0533354
320,8.90823,6.98658,-0.0533475
322.5,8.98211,6.9724,-0.052583
325,9.05637,6.98275,-0.0543674
327.5,9.13087,6.98512,-0.0556654
330,9.20518,6.96089,-0.05698
332.5,9.27937,6.96077,-0.0582991
335,9.35368,6.98476,-0.05962
337.5,9.42842,6.97669,-0.0596184
340,9.50296,6.9651,-0.0582673
342.5,9.57752,6.95558,-0.0582627
345,9.65204,6.93847,-0.05961
347.5,9.72696,6.9371,-0.060985
350,9.8013,6.9446,-0.0609255
352.5,9.87654,6.94041,-0.0609286
355,9.95161,6.94261,-0.06225
357.5,10.0263,6.949,-0.0635568
360,10.1016,6.94451,-0.06356
362.5,10.1768,6.95689,-0.0635673
365,10.2518,6.96317,-0.0648757
367.5,10.3271,6.97737,-0.0675146
370,10.4025,7.00038,-0.0678627
372.5,10.4778,7.03147,-0.06751
375,10.5535,7.06136,-0.0687635
377.5,10.6291,7.09293,-0.0701458
380,10.7045,7.11037,-0.0713889
382.5,10.7802,7.18779,-0.0770574
385,10.8563,7.26389,-0.0725929
387.5,10.9324,7.35048,-0.0739896
390,11.0086,7.46888,-0.0743308
392.5,11.0847,7.6132,-0.0762301
395,11.1614,7.81134,-0.0788271
397.5,11.2383,8.0352,-0.0822248
400,11.3152,8.33575,-0.0841942
402.5,11.3924,8.71044,-0.0848813
405,11.4702,9.17167,-0.0895906
407.5,11.5484,9.63646,-0.0959453
410,11.6263,10.2005,-0.101049
412.5,11.705,10.9452,-0.105682
415,11.7845,11.7867,-0.117494
417.5,11.8635,12.6855,-0.13179
420,11.9439,13.6681,-0.151902
422.5,12.0247,14.835,-0.17419
425,12.1062,16.195,-0.204854
427.5,12.1887,17.7436,-0.245533
430,12.2716,19.5426,-0.29873
432.5,12.3561,21.6813,-0.365055
435,12.442,24.2046,-0.456734
437.5,12.5292,27.067,-0.575768
440,12.6175,30.114,-0.740586
442.5,12.7062,33.2213,-0.941455
445,12.7936,36.0433,-1.21514
447.5,12.8802,38.1029,-1.54248
450,12.9637,39.2785,-1.8958
452.5,13.0432,39.4068,-2.27721
455,13.1176,38.0022,-2.61559
457.5,13.1865,35.115,-2.96444
460,13.2516,30.9937,-3.24075
462.5,13.3118,25.8216,-3.46384
465,13.3683,19.4113,-3.65424
467.5,13.423,12.6139,-3.76563
470,13.4817,7.17196,-3.83603
472.5,13.5469,4.01384,-3.87752
475,13.6172,2.38581,-3.90002
477.5,13.6908,1.59606,-3.91293
480,13.7664,1.19861,-3.91758
482.5,13.8429,1.00757,-3.92209
485,13.9204,0.882072,-3.92309
487.5,13.9979,0.816275,-3.92397
490,14.0757,0.755571,-3.92528
492.5,14.1536,0.721702,-3.92561
495,14.2321,0.69349,-3.92561
497.5,14.3105,0.670423,-3.9269
500,14.3888,0.640058,-3.92722
502.5,14.4668,0.619879,-3.92959
505,14.546,0.605702,-3.92923
507.5,14.6247,0.58528,-3.92923
510,14.7035,0.578,-3.92923
512.5,14.7822,0.564308,-3.92923
515,14.8611,0.55277,-3.92924
517.5,14.9399,0.536219,-3.93109
520,15.0191,0.522196,-3.92857
522.5,15.0978,0.516731,-3.92857
525,15.1768,0.495197,-3.92991
527.5,15.256,0.486419,-3.92989
530,15.3353,0.462243,-3.93121
532.5,15.4141,0.452368,-3.92989
535,15.4931,0.426216,-3.92989
537.5,15.5726,0.410143,-3.92989
540,15.6519,0.394713,-3.92858
542.5,15.7312,0.366641,-3.92858
545,15.8106,0.3498,-3.92858
547.5,15.8902,0.322372,-3.92825
550,15.9697,0.300435,-3.92956
552.5,16.049,0.262997,-3.93088
555,16.1286,0.24709,-3.93194
557.5,16.2082,0.216928,-3.93219
560,16.2876,0.18578,-3.93219
562.5,16.3674,0.161386,-3.93083
565,16.4472,0.137233,-3.9288
567.5,16.527,0.119295,-3.93329
570,16.6069,0.103685,-3.93539
572.5,16.6867,0.0790171,-3.93538
575,16.7667,0.0522891,-3.93406
577.5,16.8468,0.0385816,-3.93272
580,16.9267,0.00774651,-3.9367
582.5,17.0068,-0.00965758,-3.9322
585,17.0866,-0.0312163,-3.9322
587.5,17.1669,-0.0526037,-3.93225
590,17.247,-0.0738344,-3.93351
592.5,17.3271,-0.0786557,-3.93286
595,17.4082,-0.0808644,-3.93286
597.5,17.4886,-0.0937559,-3.93319
600,17.5693,-0.0929495,-3.93457
602.5,17.6499,-0.0992603,-3.93384
605,17.7303,-0.101911,-3.93384
607.5,17.8115,-0.0932179,-3.93516
610,17.8924,-0.0986639,-3.93516
612.5,17.9732,-0.104387,-3.93516
615,18.0541,-0.0974392,-3.9345
617.5,18.135,-0.117051,-3.93578
620,18.2162,-0.103403,-3.93483
622.5,18.2973,-0.0879456,-3.93482
625,18.3783,-0.0633415,-3.94144
627.5,18.4594,-0.0429517,-3.94097
630,18.5399,-0.0565047,-3.93177
632.5,18.6215,-0.0262061,-3.93012
635,18.7031,-0.0384354,-3.93077
637.5,18.7841,-0.00972121,-3.93209
640,18.8655,0.00160505,-3.93209
642.5,18.9469,0.0343233,-3.93209
645,19.0281,0.0390676,-3.93341
647.5,19.1095,0.0471314,-3.93341
650,19.1909,0.0714225,-3.93341
652.5,19.2726,0.108153,-3.93341
655,19.3543,0.123789,-3.9331
657.5,19.4355,0.150659,-3.93272
660,19.5175,0.169937,-3.93596
662.5,19.5988,0.190681,-3.93538
665,19.6806,0.204266,-3.9367
667.5,19.7624,0.216456,-3.93538
670,19.8439,0.22854,-3.93482
672.5,19.9257,0.244731,-3.93341
675,20.0075,0.254202,-3.93341
677.5,20.0891,0.26941,-3.93248
680,20.1709,0.267354,-3.93593
682.5,20.2527,0.282362,-3.93594
685,20.3345,0.281214,-3.93528
687.5,20.4161,0.288173,-3.93528
690,20.4977,0.288341,-3.93659
692.5,20.5803,0.29062,-3.93658
695,20.6621,0.300864,-3.93659
697.5,20.7439,0.311955,-3.93659
700,20.826,0.321712,-3.93659
702.5,20.9083,0.326165,-3.93527
705,20.9903,0.337255,-3.93395
707.5,21.0725,0.340283,-3.93499
710,21.1549,0.345894,-3.93527
712.5,21.2368,0.35318,-3.93528
715,21.319,0.350053,-3.93972
717.5,21.4016,0.350492,-3.93682
720,21.4837,0.360728,-3.93439
722.5,21.5656,0.361198,-3.93549
725,21.6488,0.357316,-3.93417
727.5,21.731,0.359667,-3.93549
730,21.8136,0.34087,-3.93436
732.5,21.896,0.3472,-3.93417
735,21.9784,0.326942,-3.93417
737.5,22.0612,0.322204,-3.93417
740,22.1434,0.321106,-3.93415
742.5,22.2263,0.31529,-3.9345
745,22.3092,0.300654,-3.9345
747.5,22.3918,0.303723,-3.93582
750,22.4745,0.28228,-3.93581
752.5,22.5572,0.266069,-3.93714
755,22.6401,0.258913,-3.93714
757.5,22.7228,0.247018,-3.93549
760,22.8054,0.240358,-3.93549
762.5,22.8886,0.225744,-3.93552
765,22.9711,0.21092,-3.93411
767.5,23.0542,0.213189,-3.93744
770,23.1369,0.203336,-3.93665
772.5,23.2195,0.189572,-3.93439
775,23.3027,0.18582,-3.93439
777.5,23.3853,0.171785,-3.93703
780,23.4681,0.170455,-3.93571
782.5,23.5511,0.15764,-3.93571
785,23.6337,0.156592,-3.93571
787.5,23.7168,0.142657,-3.93704
790,23.7997,0.124188,-3.93571