Folder: fsri_materials_database/01_Data/Engineered_Wood_Furniture/FTIR/IS

File: Engineered_Wood_Furniture_IS_T_221005_R4.dpt
7497.03,0.02135
7473.89,0.03328
7450.74,0.01813
7427.6,0.02541
7404.45,0.02157
7381.31,0.02530
7358.16,0.03554
7335.02,0.03070
7311.87,0.02698
7288.73,0.03018
7265.58,0.02249
7242.44,0.02662
7219.29,0.03248
7196.15,0.02460
7173,0.02176
7149.86,0.01648
7126.71,0.02691
7103.57,0.01855
7080.42,0.02797
7057.28,0.02629
7034.13,0.01862
7010.99,0.01587
6987.84,0.02847
6964.7,0.02639
6941.55,0.02502
6918.41,0.02415
6895.26,0.02158
6872.12,0.02352
6848.97,0.02034
6825.83,0.02710
6802.68,0.02313
6779.54,0.02475
6756.39,0.02078
6733.25,0.02167
6710.1,0.02514
6686.96,0.01912
6663.82,0.02393
6640.67,0.02463
6617.53,0.01792
6594.38,0.02221
6571.24,0.02242
6548.09,0.01946
6524.95,0.02042
6501.8,0.02400
6478.66,0.02347
6455.51,0.02013
6432.37,0.02208
6409.22,0.01906
6386.08,0.02205
6362.93,0.02275
6339.79,0.02093
6316.64,0.02198
6293.5,0.02079
6270.35,0.02092
6247.21,0.02097
6224.06,0.02193
6200.92,0.02341
6177.77,0.02092
6154.63,0.02106
6131.48,0.01918
6108.34,0.02280
6085.19,0.02065
6062.05,0.02424
6038.9,0.01940
6015.76,0.02189
5992.61,0.02005
5969.47,0.01937
5946.32,0.02034
5923.18,0.02075
5900.03,0.02116
5876.89,0.02480
5853.74,0.02106
5830.6,0.02148
5807.45,0.02233
5784.31,0.02050
5761.16,0.02290
5738.02,0.02074
5714.87,0.02117
5691.73,0.02267
5668.58,0.02334
5645.44,0.02293
5622.29,0.02244
5599.15,0.02169
5576,0.02181
5552.86,0.02288
5529.71,0.02169
5506.57,0.01960
5483.42,0.02197
5460.28,0.02145
5437.13,0.02179
5413.99,0.02021
5390.84,0.02224
5367.7,0.02133
5344.55,0.02127
5321.41,0.02228
5298.26,0.02229
5275.12,0.02201
5251.97,0.02080
5228.83,0.02152
5205.68,0.02256
5182.54,0.02257
5159.39,0.02168
5136.25,0.02192
5113.1,0.02258
5089.96,0.02150
5066.81,0.02121
5043.67,0.02128
5020.52,0.02158
4997.38,0.02141
4974.23,0.02100
4951.09,0.02088
4927.94,0.02043
4904.8,0.02191
4881.65,0.02146
4858.51,0.02239
4835.36,0.02186
4812.22,0.02386
4789.07,0.02171
4765.93,0.02238
4742.78,0.02129
4719.64,0.02301
4696.49,0.02283
4673.35,0.02215
4650.2,0.02215
4627.06,0.02168
4603.92,0.02248
4580.77,0.02176
4557.63,0.02202
4534.48,0.02191
4511.34,0.02246
4488.19,0.02269
4465.05,0.02173
4441.9,0.02222
4418.76,0.02207
4395.61,0.02213
4372.47,0.02105
4349.32,0.02248
4326.18,0.02224
4303.03,0.02272
4279.89,0.02257
4256.74,0.02201
4233.6,0.02214
4210.45,0.02096
4187.31,0.02251
4164.16,0.02159
4141.02,0.02202
4117.87,0.02240
4094.73,0.02191
4071.58,0.02259
4048.44,0.02207
4025.29,0.02220
4002.15,0.02249
3979,0.02180
3955.86,0.02236
3932.71,0.02240
3909.57,0.02182
3886.42,0.02215
3863.28,0.02202
3840.13,0.02169
3816.99,0.02251
3793.84,0.02200
3770.7,0.02272
3747.55,0.02243
3724.41,0.02229
3701.26,0.02249
3678.12,0.02248
3654.97,0.02191
3631.83,0.02136
3608.68,0.02183
3585.54,0.02127
3562.39,0.02087
3539.25,0.02109
3516.1,0.02150
3492.96,0.02057
3469.81,0.02061
3446.67,0.02074
3423.52,0.02035
3400.38,0.02053
3377.23,0.02052
3354.09,0.01981
3330.94,0.02034
3307.8,0.02021
3284.65,0.02086
3261.51,0.02012
3238.36,0.02112
3215.22,0.02038
3192.07,0.02046
3168.93,0.02022
3145.78,0.02068
3122.64,0.02115
3099.49,0.02038
3076.35,0.02053
3053.2,0.02064
3030.06,0.01989
3006.91,0.02023
2983.77,0.01958
2960.62,0.01914
2937.48,0.01966
2914.33,0.02020
2891.19,0.02045
2868.04,0.02001
2844.9,0.02049
2821.75,0.02088
2798.61,0.02059
2775.46,0.02078
2752.32,0.02076
2729.17,0.02077
2706.03,0.02094
2682.88,0.02075
2659.74,0.02105
2636.59,0.02083
2613.45,0.02077
2590.3,0.02069
2567.16,0.02123
2544.02,0.02112
2520.87,0.02082
2497.73,0.02099
2474.58,0.02077
2451.44,0.02095
2428.29,0.02082
2405.15,0.02122
2382,0.02087
2358.86,0.02097
2335.71,0.02068
2312.57,0.02082
2289.42,0.02076
2266.28,0.02053
2243.13,0.02119
2219.99,0.02076
2196.84,0.02089
2173.7,0.02040
2150.55,0.02072
2127.41,0.02097
2104.26,0.02086
2081.12,0.02059
2057.97,0.02058
2034.83,0.02021
2011.68,0.02048
1988.54,0.02028
1965.39,0.02076
1942.25,0.02015
1919.1,0.02056
1895.96,0.02031
1872.81,0.02019
1849.67,0.02003
1826.52,0.01979
1803.38,0.01981
1780.23,0.01900
1757.09,0.01745
1733.94,0.01954
1710.8,0.02036
1687.65,0.01890
1664.51,0.01817
1641.36,0.01821
1618.22,0.01899
1595.07,0.01842
1571.93,0.01814
1548.78,0.01815
1525.64,0.01836
1502.49,0.01836
1479.35,0.01814
1456.2,0.01822
1433.06,0.01849
1409.91,0.01798
1386.77,0.01822
1363.62,0.01822
1340.48,0.01755
1317.33,0.01697
1294.19,0.01772
1271.04,0.01944
1247.9,0.02021
1224.75,0.01933
1201.61,0.01851
1178.46,0.01781
1155.32,0.01713
1132.17,0.01867
1109.03,0.01866
1085.88,0.01837
1062.74,0.01973
1039.59,0.01971
1016.45,0.01929
993.304,0.02093
970.159,0.01990
947.014,0.01990
923.869,0.01918
900.724,0.01932
877.579,0.01893
854.434,0.01920
831.289,0.01850
808.144,0.01824
784.999,0.01839
761.854,0.01806
738.709,0.01831
715.565,0.01827
692.42,0.01796
669.275,0.01792
646.13,0.01737
622.985,0.01603
599.84,0.01637