Folder: fsri_materials_database/01_Data/Polycarbonate_Helmet_Shell/STA/N2/10K_min (part 2)

File: Polycarbonate_Helmet_Shell_STA_N2_10KData_241009_R3.csv
Temp./C,Time/min,DSC/(mW/mg),Mass loss/mg
60.0,0.0,0.760995,-0.000622497
62.5,0.279563,0.800526,0.00121643
65,0.551668,0.821871,-0.00151236
67.5,0.817526,0.850076,-0.000662925
70,1.08501,0.865019,-0.0011894
72.5,1.34753,0.898016,-9.81278e-06
75,1.60709,0.892296,-0.00297006
77.5,1.86804,0.906838,-0.00183059
80,2.12399,0.910728,-8.64181e-05
82.5,2.37826,0.905274,-0.000660004
85,2.6316,0.912498,0.000629755
87.5,2.88344,0.918327,0.000724479
90,3.1334,0.930612,0.000119086
92.5,3.382,0.951004,-0.000174209
95,3.62926,0.958832,-0.000311825
97.5,3.87602,0.975134,-0.00154
100,4.12265,0.988409,-0.00239021
102.5,4.36851,0.995485,-0.00153874
105,4.61322,1.01351,0.00108918
107.5,4.85791,1.0247,0.0025443
110,5.10145,1.03319,0.00109522
112.5,5.345,1.03127,-0.000229093
115,5.5899,1.03512,-0.00154
117.5,5.83185,1.04438,0.000339261
120,6.07416,1.05839,0.00239944
122.5,6.31695,1.06948,0.00241021
125,6.55878,1.07062,0.00109
127.5,6.799,1.08124,-0.000458624
130,7.04023,1.08894,0.00241618
132.5,7.28284,1.1012,0.00112774
135,7.52153,1.10556,0.00141999
137.5,7.76319,1.10901,0.00278661
140,8.0028,1.11931,0.00132376
142.5,8.24188,1.12205,-2.74249e-05
145,8.48163,1.13985,0.00131294
147.5,8.72199,1.14472,6.89512e-05
150,8.96033,1.15527,0.00141998
152.5,9.20033,1.15531,0.00109928
155,9.43976,1.16702,0.00250768
157.5,9.67793,1.17966,0.00263
160,9.91789,1.18127,0.000650081
162.5,10.158,1.19814,0.000651755
165,10.3965,1.20579,0.00327235
167.5,10.6372,1.21804,0.0032785
170,10.8748,1.25515,0.00603
172.5,11.1134,1.28902,0.00372956
175,11.3518,1.32118,-0.000669941
177.5,11.5904,1.34188,0.00197048
180,11.8292,1.34132,0.00327975
182.5,12.0668,1.35057,0.000660272
185,12.3048,1.33721,0.00298183
187.5,12.5413,1.33881,0.000334512
190,12.7799,1.34589,0.00128267
192.5,13.0137,1.35472,0.00296003
195,13.2536,1.36046,0.00293959
197.5,13.49,1.35768,0.00428
200,13.728,1.36138,0.0029975
202.5,13.9649,1.36471,0.00163999
205,14.2015,1.36939,0.000319803
207.5,14.44,1.38306,0.00164991
210,14.6781,1.38776,0.00296078
212.5,14.9151,1.38334,0.000310187
215,15.1542,1.38753,0.0017518
217.5,15.3921,1.39906,0.000808225
220,15.6281,1.38755,0.00163357
222.5,15.8686,1.38786,-0.00120068
225,16.1064,1.39018,0.0001
227.5,16.3441,1.38937,0.00142
230,16.5807,1.40176,0.00400145
232.5,16.8191,1.40209,-0.00135717
235,17.0563,1.39445,0.00147958
237.5,17.2929,1.40357,0.000201026
240,17.5323,1.40506,0.00171925
242.5,17.7699,1.40592,0.00189424
245,18.0085,1.41268,0.00482987
247.5,18.2461,1.40007,0.002173
250,18.4832,1.39226,0.00054
252.5,18.721,1.40759,0.000860152
255,18.9585,1.39558,0.00153147
257.5,19.1963,1.39873,0.00285
260,19.4339,1.40212,0.000210216
262.5,19.6688,1.40134,0.000210001
265,19.9087,1.40016,0.00153079
267.5,20.1483,1.40037,0.00284504
270,20.3865,1.40986,0.00447115
272.5,20.6246,1.4138,0.00131018
275,20.8626,1.40796,0.00229987
277.5,21.1011,1.40556,0.000971815
280,21.3411,1.40843,0.00362067
282.5,21.579,1.41219,0.00229844
285,21.8189,1.42161,0.00263009
287.5,22.0581,1.41348,0.0019729
290,22.2969,1.4128,0.00231259
292.5,22.5362,1.41501,0.0033239
295,22.7745,1.40422,0.00197
297.5,23.0123,1.40249,-0.000668039
300,23.2517,1.40208,0.00197
302.5,23.4906,1.40902,6.02927e-07
305,23.7306,1.41356,0.00394653
307.5,23.9687,1.41452,0.00177033
310,24.2058,1.40159,-0.000361598
312.5,24.4492,1.39889,0.000993659
315,24.6886,1.39855,0.00229064
317.5,24.9284,1.39853,-0.00179119
320,25.1676,1.38883,-0.000342028
322.5,25.4077,1.39851,0.00197
325,25.6475,1.39106,0.000979923
327.5,25.8868,1.38358,1.49755e-05
330,26.1275,1.38369,0.002739
332.5,26.3671,1.38473,-0.00119108
335,26.607,1.38741,0.00304061
337.5,26.8472,1.37855,0.00285
340,27.0876,1.38856,0.00228663
342.5,27.3265,1.38632,0.000221331
345,27.5699,1.38497,0.00242686
347.5,27.8106,1.37643,0.00131
350,28.0525,1.37345,0.00132617
352.5,28.2927,1.37869,0.000980065
355,28.5355,1.37305,-0.00132009
357.5,28.7773,1.37426,0.00132337
360,29.0165,1.36405,-1.74669e-05
362.5,29.2601,1.36407,-0.000292882
365,29.5002,1.36365,-0.000342459
367.5,29.7453,1.3564,-0.00165884
370,29.9863,1.35468,-0.000337645
372.5,30.2274,1.34508,-0.00165
375,30.4704,1.34295,-0.00165096
377.5,30.7137,1.32868,-0.00176001
380,30.9559,1.32195,-0.00109279
382.5,31.1979,1.3202,-0.00242015
385,31.4411,1.3111,-0.00583911
387.5,31.6842,1.30769,-0.00418
390,31.9273,1.29939,-0.00352
392.5,32.1696,1.29722,-0.000565608
395,32.4135,1.28038,-0.00188152
397.5,32.6564,1.28026,-0.00318891
400,32.8997,1.26718,-0.00625163
402.5,33.1436,1.2604,-0.00171457
405,33.3872,1.25879,-0.00614852
407.5,33.6309,1.25813,-0.00636088
410,33.875,1.252,-0.00834999
412.5,34.1188,1.24752,-0.00966819
415,34.363,1.25696,-0.00691016
417.5,34.6072,1.25458,-0.00619722
420,34.851,1.2525,-0.00966962
422.5,35.0959,1.24791,-0.0152587
425,35.342,1.24034,-0.0133047
427.5,35.5874,1.24744,-0.0149362
430,35.8317,1.25046,-0.0120918
432.5,36.0768,1.24077,-0.0146048
435,36.3214,1.24211,-0.017698
437.5,36.5675,1.22242,-0.0305458
440,36.8128,1.21254,-0.0303536
442.5,37.0569,1.20256,-0.0306101
445,37.3023,1.19535,-0.0348096
447.5,37.548,1.18334,-0.0407299
450,37.7916,1.18049,-0.042436
452.5,38.0401,1.17135,-0.0514269
455,38.2854,1.17102,-0.0572182
457.5,38.5317,1.16113,-0.065762
460,38.7791,1.16728,-0.0772537
462.5,39.0261,1.15149,-0.0884934
465,39.2728,1.17049,-0.0991423
467.5,39.5203,1.1504,-0.112048
470,39.7676,1.15322,-0.130893
472.5,40.0135,1.17216,-0.145452
475,40.2603,1.18132,-0.165043
477.5,40.5064,1.18168,-0.187109
480,40.7537,1.18888,-0.212862
482.5,40.9999,1.19563,-0.244677
485,41.2477,1.2086,-0.275812
487.5,41.4939,1.2111,-0.313656
490,41.742,1.21432,-0.36158
492.5,41.9894,1.25768,-0.413761
495,42.2367,1.26904,-0.473195
497.5,42.4831,1.2918,-0.541923
500,42.7314,1.30455,-0.623648
502.5,42.9791,1.32325,-0.7165
505,43.227,1.34505,-0.817269
507.5,43.4757,1.35515,-0.933145
510,43.724,1.37887,-1.05696
512.5,43.9725,1.41491,-1.18462
515,44.2221,1.4379,-1.31407
517.5,44.4671,1.34769,-1.43438
520,44.7139,1.08978,-1.54716
522.5,44.9577,0.794176,-1.6489
525,45.202,0.500274,-1.73882
527.5,45.4486,0.269096,-1.81216
530,45.6923,0.0880346,-1.87426
532.5,45.9407,-0.0128347,-1.92683
535,46.1874,-0.0621368,-1.96773
537.5,46.4363,-0.0847384,-2.00204
540,46.6853,-0.0748521,-2.0297
542.5,46.9354,-0.0518732,-2.05232
545,47.1841,-0.0329479,-2.07117
547.5,47.4349,-0.00896819,-2.08839
550,47.6852,0.00613308,-2.10466
552.5,47.9332,0.0311953,-2.1179
555,48.1837,0.0300889,-2.13562
557.5,48.4325,0.0510777,-2.14388
560,48.6822,0.0598039,-2.16174
562.5,48.9292,0.0725616,-2.17243
565,49.1807,0.0853754,-2.17953
567.5,49.4316,0.0886795,-2.19017
570,49.6805,0.100142,-2.19873
572.5,49.932,0.116892,-2.20857
575,50.1825,0.116104,-2.22134
577.5,50.4326,0.13145,-2.23528
580,50.6825,0.145384,-2.24198
582.5,50.9305,0.16287,-2.25062
585,51.1843,0.16291,-2.26284
587.5,51.4348,0.179444,-2.27131
590,51.6864,0.18759,-2.28173
592.5,51.9376,0.203764,-2.28986
595,52.1888,0.212635,-2.30046
597.5,52.4376,0.234311,-2.30904
600,52.6908,0.252914,-2.31831
602.5,52.941,0.270335,-2.3275
605,53.1903,0.282482,-2.33504
607.5,53.4415,0.29085,-2.3464
610,53.6928,0.302986,-2.35218
612.5,53.9437,0.323952,-2.36286
615,54.1948,0.338981,-2.37063
617.5,54.4463,0.355453,-2.37781
620,54.6967,0.380808,-2.38563
622.5,54.9467,0.403183,-2.39319
625,55.1984,0.424039,-2.3993
627.5,55.4495,0.441749,-2.40581
630,55.7002,0.469988,-2.41329
632.5,55.9518,0.483672,-2.41995
635,56.2036,0.502511,-2.42129
637.5,56.4555,0.515061,-2.43061
640,56.708,0.527667,-2.43316
642.5,56.9594,0.544,-2.43942
645,57.211,0.546783,-2.44519
647.5,57.4623,0.557315,-2.45179
650,57.7136,0.553336,-2.45574
652.5,57.9664,0.555455,-2.45937
655,58.2171,0.549015,-2.46122
657.5,58.4685,0.548349,-2.4647
660,58.7207,0.546293,-2.46878
662.5,58.9716,0.525435,-2.47737
665,59.2229,0.500945,-2.47869
667.5,59.4753,0.489633,-2.48
670,59.7278,0.4722,-2.48242
672.5,59.9805,0.461297,-2.48681
675,60.2324,0.448594,-2.49054
677.5,60.4837,0.429747,-2.49285
680,60.7356,0.401894,-2.4982
682.5,60.9887,0.387715,-2.4993
685,61.2399,0.356701,-2.50061
687.5,61.4914,0.346471,-2.50251
690,61.7441,0.331909,-2.50787
692.5,61.9942,0.311783,-2.51041
695,62.247,0.306066,-2.51178
697.5,62.4986,0.276747,-2.51305
700,62.7499,0.282104,-2.51569
702.5,63.0016,0.258722,-2.517
705,63.2542,0.24415,-2.517
707.5,63.5074,0.224797,-2.51841
710,63.7595,0.226126,-2.52345
712.5,64.0133,0.208593,-2.52536
715,64.2666,0.193883,-2.52534
717.5,64.5184,0.175645,-2.53061
720,64.7726,0.161194,-2.53193
722.5,65.0254,0.14001,-2.53193
725,65.2788,0.128432,-2.53597
727.5,65.5322,0.119855,-2.5379
730,65.7859,0.105284,-2.53988
732.5,66.0384,0.09184,-2.53927
735,66.2923,0.0797781,-2.53698
737.5,66.5455,0.0637707,-2.54093
740,66.7986,0.0466819,-2.54223
742.5,67.0521,0.0292942,-2.5436
745,67.3064,0.00968583,-2.54653
747.5,67.5601,-0.00556724,-2.54815
750,67.8136,-0.0193759,-2.54884
752.5,68.0676,-0.0337901,-2.5495
755,68.3215,-0.0378255,-2.55147
757.5,68.5749,-0.0541402,-2.55343
760,68.8295,-0.0541096,-2.55517
762.5,69.0835,-0.0741131,-2.55542
765,69.3373,-0.0775936,-2.55543
767.5,69.5919,-0.0851397,-2.55674
770,69.8456,-0.0769795,-2.55741
772.5,70.1009,-0.0832181,-2.55815
775,70.3548,-0.103507,-2.56004
777.5,70.6099,-0.108915,-2.56077
780,70.8642,-0.115313,-2.55926
782.5,71.1176,-0.119278,-2.56304
785,71.372,-0.123138,-2.56388
787.5,71.6262,-0.128027,-2.5619
790,71.8792,-0.119243,-2.56321