Folder: fsri_materials_database/01_Data/Polycarbonate_Helmet_Shell/STA/N2/10K_min

File: Polycarbonate_Helmet_Shell_STA_N2_10KData_241007_R1.csv
Temp./C,Time/min,DSC/(mW/mg),Mass loss/mg
60.0,0.0,0.787149,0.0102727
62.3,0.25616,0.849096,0.00896169
64.6,0.505997,0.87393,0.00912181
66.9,0.750863,0.90633,0.0112738
69.2,0.995847,0.908127,0.00771915
71.5,1.23673,0.931063,0.00712914
73.8,1.4728,0.947591,0.00910002
76.1,1.71737,0.959891,0.0104374
78.4,1.9513,0.973542,0.00740547
80.7,2.1905,0.983519,0.00910904
83,2.42613,0.982328,0.0116944
85.3,2.65821,0.994842,0.0091752
87.6,2.88862,1.00262,0.0105403
89.9,3.1197,1.01932,0.00789665
92.2,3.34599,1.02709,0.00789982
94.5,3.57835,1.03391,0.00796962
96.8,3.80521,1.04974,0.00922648
99.1,4.03177,1.0626,0.0105303
101.4,4.2565,1.07415,0.0101082
103.7,4.48255,1.08533,0.00911089
106,4.70742,1.10252,0.0104201
108.3,4.92923,1.11718,0.0117402
110.6,5.15715,1.13021,0.00942952
112.9,5.38077,1.13454,0.00943631
115.2,5.6042,1.14967,0.00942043
117.5,5.82857,1.16026,0.00943
119.8,6.05307,1.17526,0.00942912
122.1,6.27454,1.18679,0.0117197
124.4,6.49723,1.19257,0.01042
126.7,6.71921,1.20561,0.0117688
129,6.94142,1.22176,0.01306
131.3,7.16286,1.22764,0.01306
133.6,7.38445,1.23093,0.011696
135.9,7.60601,1.24792,0.0117122
138.2,7.82694,1.2613,0.011742
140.5,8.04835,1.27224,0.0124
142.8,8.27014,1.28248,0.0137201
145.1,8.49044,1.29021,0.0124281
147.4,8.71205,1.29699,0.0137198
149.7,8.93173,1.30657,0.01175
152,9.15346,1.3177,0.01175
154.3,9.37155,1.3323,0.0130336
156.6,9.59247,1.34473,0.01339
158.9,9.81306,1.35577,0.0127311
161.2,10.0339,1.36645,0.0127651
163.5,10.2535,1.38106,0.0124
165.8,10.4737,1.40302,0.01108
168.1,10.6929,1.41776,0.0127305
170.4,10.9137,1.44894,0.0133828
172.7,11.1344,1.47802,0.0137184
175,11.353,1.50706,0.0137138
177.3,11.5729,1.52267,0.0143715
179.6,11.7927,1.52691,0.0137351
181.9,12.0127,1.53881,0.01437
184.2,12.232,1.54567,0.01536
186.5,12.4518,1.54913,0.0143688
188.8,12.6704,1.55441,0.0126948
191.1,12.8899,1.55582,0.01537
193.4,13.1079,1.56055,0.0137163
195.7,13.3284,1.56661,0.0123934
198,13.5477,1.56746,0.0150171
200.3,13.7674,1.58444,0.0172027
202.6,13.9845,1.58915,0.0163691
204.9,14.2065,1.5943,0.0150297
207.2,14.4248,1.59881,0.016338
209.5,14.6448,1.61139,0.015782
211.8,14.8632,1.63903,0.0123997
214.1,15.0823,1.65935,0.01372
216.4,15.3009,1.67632,0.0155884
218.7,15.5197,1.68458,0.0156953
221,15.7398,1.68816,0.0157074
223.3,15.9603,1.68689,0.0143696
225.6,16.1784,1.69364,0.01438
227.9,16.3966,1.69962,0.0162294
230.2,16.6157,1.71575,0.0170552
232.5,16.8344,1.71028,0.0169855
234.8,17.0542,1.71896,0.0148274
237.1,17.2721,1.7155,0.0147045
239.4,17.4909,1.722,0.01701
241.7,17.7106,1.72333,0.0176731
244,17.9283,1.72163,0.0163497
246.3,18.1464,1.73129,0.0150406
248.6,18.3654,1.72911,0.0164861
250.9,18.5846,1.73581,0.0179983
253.2,18.8027,1.73606,0.018013
255.5,19.0214,1.73694,0.0187699
257.8,19.2389,1.73352,0.01767
260.1,19.4592,1.74442,0.0176954
262.4,19.678,1.74804,0.01767
264.7,19.896,1.74919,0.01635
267,20.1162,1.75858,0.019937
269.3,20.3349,1.76345,0.0199837
271.6,20.5554,1.76364,0.0196502
273.9,20.7744,1.76327,0.02064
276.2,20.9939,1.76925,0.0183315
278.5,21.2137,1.76873,0.01931
280.8,21.4344,1.76939,0.0193212
283.1,21.6539,1.77882,0.02063
285.4,21.8739,1.77218,0.0193143
287.7,22.0945,1.78208,0.0206338
290,22.3147,1.77646,0.01931
292.3,22.5343,1.77771,0.0179998
294.6,22.754,1.78897,0.018329
296.9,22.974,1.78609,0.0222796
299.2,23.1933,1.792,0.0209509
301.5,23.4107,1.79582,0.01965
303.8,23.634,1.80308,0.0201513
306.1,23.8538,1.8038,0.01965
308.4,24.075,1.80607,0.02096
310.7,24.2946,1.81041,0.019965
313,24.5158,1.81506,0.0196548
315.3,24.7374,1.81211,0.02163
317.6,24.9574,1.81876,0.0223891
319.9,25.1801,1.80552,0.0210849
322.2,25.3984,1.81037,0.0195674
324.5,25.623,1.80926,0.0223896
326.8,25.8438,1.81161,0.0210798
329.1,26.0657,1.81282,0.0210591
331.4,26.2876,1.80296,0.019493
333.7,26.5084,1.81201,0.01976
336,26.7308,1.81727,0.0200873
338.3,26.9526,1.8135,0.0227128
340.6,27.1745,1.80808,0.0187696
342.9,27.3953,1.81322,0.01976
345.2,27.6174,1.81501,0.01976
347.5,27.8389,1.81778,0.0183941
349.8,28.0612,1.81518,0.0197642
352.1,28.2841,1.82198,0.0217336
354.4,28.5049,1.82225,0.0202347
356.7,28.7275,1.82333,0.02009
359,28.9508,1.81586,0.019427
361.3,29.1733,1.81268,0.0220508
363.6,29.3953,1.81852,0.02075
365.9,29.6192,1.81261,0.02075
368.2,29.8419,1.82111,0.0191388
370.5,30.0649,1.81651,0.0187634
372.8,30.2878,1.82207,0.0174758
375.1,30.5113,1.81214,0.0206978
377.4,30.7341,1.80999,0.0202059
379.7,30.9571,1.80975,0.019859
382,31.1812,1.80088,0.0192098
384.3,31.4042,1.80648,0.0178904
386.6,31.6286,1.79602,0.0178901
388.9,31.8519,1.79028,0.01986
391.2,32.0768,1.78854,0.01593
393.5,32.3001,1.78046,0.0158233
395.8,32.5242,1.77742,0.0172307
398.1,32.7486,1.76457,0.015909
400.4,32.9713,1.75617,0.0160043
402.7,33.1968,1.76006,0.0168993
405,33.4208,1.75769,0.0142538
407.3,33.6472,1.753,0.014926
409.6,33.8706,1.74335,0.0145902
411.9,34.0961,1.73518,0.0146
414.2,34.3206,1.7287,0.0159521
416.5,34.5462,1.71971,0.01064
418.8,34.7709,1.71928,0.01064
421.1,34.9953,1.71154,0.0106518
423.4,35.2197,1.69092,0.0116104
425.7,35.4448,1.68744,0.00767906
428,35.6708,1.69363,0.00506938
430.3,35.8942,1.67436,0.00240733
432.6,36.1207,1.67472,0.00373435
434.9,36.3451,1.66177,-0.00147917
437.2,36.571,1.65281,-0.00282382
439.5,36.7965,1.64612,-0.00668489
441.8,37.0224,1.64169,-0.0101602
444.1,37.2484,1.63452,-0.0143801
446.4,37.4724,1.63093,-0.01834
448.7,37.6995,1.62134,-0.0230646
451,37.9257,1.61808,-0.0283616
453.3,38.1518,1.61445,-0.0355722
455.6,38.3779,1.6094,-0.0416868
457.9,38.605,1.61152,-0.0494371
460.2,38.8304,1.60277,-0.0595597
462.5,39.057,1.6007,-0.0695486
464.8,39.284,1.59571,-0.0821854
467.1,39.5108,1.60036,-0.0939128
469.4,39.7381,1.60086,-0.105145
471.7,39.9642,1.59912,-0.120543
474,40.1915,1.60961,-0.139877
476.3,40.4183,1.61327,-0.160513
478.6,40.6462,1.6334,-0.181867
480.9,40.8723,1.62784,-0.208481
483.2,41.1007,1.64171,-0.235492
485.5,41.328,1.64746,-0.269679
487.8,41.5554,1.6652,-0.308905
490.1,41.7836,1.66875,-0.351374
492.4,42.0117,1.68165,-0.401748
494.7,42.2396,1.69996,-0.457424
497,42.4683,1.72444,-0.520619
499.3,42.6945,1.74694,-0.59331
501.6,42.9259,1.75852,-0.675923
503.9,43.1551,1.79384,-0.769031
506.2,43.3827,1.81473,-0.869376
508.5,43.612,1.84247,-0.981364
510.8,43.8398,1.88332,-1.09368
513.1,44.0698,1.9282,-1.20857
515.4,44.2983,1.89865,-1.32205
517.7,44.5247,1.73794,-1.42946
520,44.7516,1.47481,-1.53037
522.3,44.9763,1.18767,-1.62164
524.6,45.2016,0.912966,-1.70245
526.9,45.4257,0.699039,-1.77198
529.2,45.6543,0.52142,-1.83096
531.5,45.8823,0.410883,-1.87914
533.8,46.1107,0.338294,-1.92133
536.1,46.3393,0.312021,-1.95324
538.4,46.5688,0.311203,-1.98002
540.7,46.7979,0.326819,-2.00458
543,47.0272,0.341157,-2.02414
545.3,47.2566,0.36821,-2.04188
547.6,47.4854,0.391993,-2.0584
549.9,47.7172,0.411323,-2.07176
552.2,47.9459,0.435671,-2.08318
554.5,48.1768,0.448947,-2.09637
556.8,48.4059,0.467231,-2.10738
559.1,48.6355,0.470208,-2.11698
561.4,48.8654,0.479384,-2.12871
563.7,49.0951,0.492336,-2.13916
566,49.3247,0.507844,-2.1485
568.3,49.5538,0.520094,-2.15856
570.6,49.7838,0.519347,-2.16738
572.9,50.0142,0.527441,-2.176
575.2,50.2454,0.545388,-2.18444
577.5,50.4746,0.560456,-2.19577
579.8,50.7044,0.567366,-2.2032
582.1,50.9364,0.589147,-2.21239
584.4,51.1661,0.601888,-2.22091
586.7,51.3966,0.608735,-2.23179
589,51.6279,0.630401,-2.24066
591.3,51.8589,0.633465,-2.24823
593.6,52.0898,0.603429,-2.25743
595.9,52.3208,0.643987,-2.26691
598.2,52.5523,0.630316,-2.27427
600.5,52.7833,0.624727,-2.28367
602.8,53.0132,0.634091,-2.29131
605.1,53.2426,0.644673,-2.29854
607.4,53.4748,0.641691,-2.30676
609.7,53.7048,0.655128,-2.31423
612,53.9365,0.684247,-2.31971
614.3,54.1666,0.692787,-2.32844
616.6,54.3969,0.707709,-2.33591
618.9,54.6289,0.716861,-2.34134
621.2,54.86,0.734803,-2.34837
623.5,55.0902,0.744689,-2.35291
625.8,55.3211,0.744871,-2.35914
628.1,55.5525,0.759447,-2.36605
630.4,55.7833,0.765444,-2.37389
632.7,56.0139,0.770813,-2.3782
635,56.2454,0.777649,-2.38219
637.3,56.4762,0.76765,-2.38746
639.6,56.708,0.778293,-2.39418
641.9,56.9393,0.772488,-2.39558
644.2,57.1708,0.790481,-2.40084
646.5,57.4019,0.819554,-2.40475
648.8,57.633,0.847066,-2.41231
651.1,57.8655,0.862282,-2.41327
653.4,58.0972,0.862679,-2.41828
655.7,58.3292,0.885666,-2.42216
658,58.5613,0.906054,-2.4261
660.3,58.7942,0.931048,-2.42854
662.6,59.026,0.911439,-2.43136
664.9,59.2578,0.897713,-2.43466
667.2,59.4897,0.883474,-2.44003
669.5,59.7223,0.868885,-2.44037
671.8,59.953,0.852046,-2.44432
674.1,60.1822,0.843532,-2.44827
676.4,60.4162,0.826142,-2.45055
678.7,60.6478,0.825742,-2.45422
681,60.8803,0.818918,-2.45445
683.3,61.1128,0.796006,-2.45585
685.6,61.3453,0.786231,-2.45849
687.9,61.5784,0.773253,-2.46374
690.2,61.8103,0.762105,-2.46268
692.5,62.0423,0.74977,-2.46545
694.8,62.2743,0.731086,-2.46669
697.1,62.5074,0.718893,-2.4689
699.4,62.7397,0.715991,-2.47297
701.7,62.9726,0.703377,-2.47342
704,63.2043,0.691739,-2.47473
706.3,63.4367,0.674018,-2.47868
708.6,63.6689,0.655852,-2.48
710.9,63.9008,0.6382,-2.48132
713.2,64.1325,0.634874,-2.48282
715.5,64.365,0.630936,-2.48549
717.8,64.5974,0.625113,-2.48812
720.1,64.83,0.59773,-2.48813
722.4,65.0619,0.58622,-2.48944
724.7,65.2941,0.579462,-2.49076
727,65.5278,0.54798,-2.49539
729.3,65.7604,0.539495,-2.49471
731.6,65.9939,0.525362,-2.49603
733.9,66.2276,0.520153,-2.49878
736.2,66.4606,0.506395,-2.49866
738.5,66.695,0.478534,-2.50401
740,66.8467,0.464762,-2.50253

File: Polycarbonate_Helmet_Shell_STA_N2_10KData_241008_R2.csv
Temp./C,Time/min,DSC/(mW/mg),Mass loss/mg
60.0,0.0,0.675873,0.00663245
62.5,0.279723,0.713872,0.00438918
65,0.551041,0.744214,0.00568978
67.5,0.81816,0.759778,0.00569802
70,1.08216,0.783916,0.00580981
72.5,1.34341,0.793557,0.00573921
75,1.60459,0.807621,0.00590932
77.5,1.86418,0.82034,0.00581027
80,2.1205,0.818701,0.00449999
82.5,2.37487,0.82157,0.00581733
85,2.62738,0.825321,0.00581582
87.5,2.88029,0.831054,0.00582158
90,3.13031,0.841503,0.00712472
92.5,3.37899,0.854617,0.00580959
95,3.62556,0.868543,0.0057837
97.5,3.87435,0.878448,0.00450011
100,4.12031,0.889347,0.00581038
102.5,4.36594,0.89203,0.00646864
105,4.61237,0.904757,0.00714039
107.5,4.85661,0.913888,0.00679386
110,5.10097,0.922482,0.0058051
112.5,5.34469,0.928136,0.00582245
115,5.58868,0.938132,0.0058103
117.5,5.83243,0.950639,0.00614
120,6.07447,0.955906,0.00721175
122.5,6.31778,0.962581,0.00573984
125,6.56058,0.975456,0.00712998
127.5,6.80203,0.989714,0.00614
130,7.04346,0.987021,0.00778986
132.5,7.28142,0.996142,0.00713005
135,7.52509,0.996575,0.00779008
137.5,7.76409,1.01043,0.00681
140,8.00451,1.0198,0.00812
142.5,8.24733,1.03304,0.00811988
145,8.48677,1.03811,0.00811999
147.5,8.72523,1.03161,0.00812
150,8.96664,1.04843,0.00739158
152.5,9.20533,1.05828,0.00842098
155,9.4448,1.06175,0.0081207
157.5,9.68352,1.06592,0.00844768
160,9.92226,1.07241,0.00810656
162.5,10.1593,1.08465,0.00812003
165,10.4,1.10156,0.00812146
167.5,10.6388,1.11578,0.00779
170,10.8783,1.13714,0.00845018
172.5,11.1177,1.17709,0.00843699
175,11.3559,1.21557,0.0098737
177.5,11.5951,1.21368,0.00845
180,11.8337,1.21698,0.00952347
182.5,12.0712,1.21203,0.00845182
185,12.3088,1.22487,0.00911001
187.5,12.5457,1.2313,0.00843754
190,12.7853,1.23595,0.0091
192.5,13.0233,1.23392,0.00976
195,13.2612,1.24438,0.00977281
197.5,13.4984,1.24627,0.00975199
200,13.7361,1.26468,0.00876569
202.5,13.9725,1.26078,0.00977
205,14.2122,1.27986,0.00844966
207.5,14.4493,1.27731,0.00844949
210,14.6868,1.28678,0.00977076
212.5,14.9243,1.29875,0.0100902
215,15.163,1.31501,0.0100901
217.5,15.4007,1.32792,0.0114106
220,15.6391,1.3328,0.0110509
222.5,15.876,1.32958,0.0100194
225,16.1133,1.33635,0.00977434
227.5,16.3511,1.34717,0.00943447
230,16.5892,1.34393,0.00944
232.5,16.8262,1.35046,0.01175
235,17.0637,1.35649,0.0129098
237.5,17.3015,1.35663,0.0130576
240,17.5393,1.35654,0.01174
242.5,17.7761,1.35899,0.0117507
245,18.0151,1.36553,0.0121096
247.5,18.2526,1.36291,0.0133877
250,18.4911,1.3595,0.0123992
252.5,18.7286,1.37215,0.0124646
255,18.966,1.37615,0.0124005
257.5,19.2037,1.37616,0.01339
260,19.4434,1.38141,0.012295
262.5,19.6814,1.3724,0.01339
265,19.9196,1.38359,0.0143836
267.5,20.1575,1.38756,0.0153594
270,20.3962,1.38684,0.0143757
272.5,20.6346,1.38966,0.0133912
275,20.8736,1.38559,0.0147101
277.5,21.1116,1.39213,0.0163723
280,21.3506,1.39617,0.01372
282.5,21.589,1.39693,0.0146514
285,21.8296,1.39786,0.0156953
287.5,22.0685,1.40377,0.0164543
290,22.3071,1.40647,0.0156902
292.5,22.5469,1.40658,0.01635
295,22.7862,1.40768,0.0162455
297.5,23.0248,1.40785,0.01635
300,23.2616,1.40787,0.01635
302.5,23.5027,1.40965,0.01668
305,23.7422,1.41347,0.0166448
307.5,23.9823,1.41476,0.0171767
310,24.2231,1.41421,0.018
312.5,24.4622,1.4172,0.018
315,24.7032,1.41302,0.01701
317.5,24.9418,1.41807,0.01701
320,25.1826,1.42005,0.01701
322.5,25.4235,1.42162,0.0179794
325,25.6631,1.41636,0.0166796
327.5,25.9034,1.42491,0.018
330,26.1442,1.43064,0.0169645
332.5,26.384,1.42381,0.0180001
335,26.6253,1.42584,0.01866
337.5,26.8662,1.42938,0.01899
340,27.1078,1.43551,0.0193202
342.5,27.349,1.43369,0.0193199
345,27.5909,1.43769,0.01932
347.5,27.8321,1.44686,0.018
350,28.073,1.44371,0.01833
352.5,28.3158,1.44793,0.01701
355,28.5569,1.45222,0.0183252
357.5,28.7981,1.45396,0.01833
360,29.0408,1.45161,0.01767
362.5,29.2832,1.45199,0.01833
365,29.5246,1.45528,0.01767
367.5,29.7673,1.4579,0.018
370,30.0101,1.4521,0.01866
372.5,30.253,1.4491,0.0180407
375,30.4944,1.44757,0.0166787
377.5,30.7378,1.44592,0.018
380,30.9804,1.44641,0.0157
382.5,31.2231,1.44561,0.0179921
385,31.4665,1.44896,0.01734
387.5,31.7096,1.44425,0.0170128
390,31.9511,1.43361,0.0186602
392.5,32.1961,1.43362,0.0177355
395,32.4402,1.41644,0.01734
397.5,32.6841,1.40548,0.01734
400,32.9284,1.38923,0.0160456
402.5,33.172,1.38047,0.01603
405,33.4168,1.37764,0.0160301
407.5,33.6612,1.37081,0.0147674
410,33.903,1.37246,0.0144723
412.5,34.1484,1.37177,0.01306
415,34.3937,1.36,0.013186
417.5,34.6367,1.35452,0.0130695
420,34.8811,1.35525,0.01306
422.5,35.1265,1.3516,0.0107496
425,35.3706,1.3411,0.00911122
427.5,35.614,1.33818,0.00802608
430,35.8587,1.34372,0.00779258
432.5,36.1038,1.32714,0.00482129
435,36.3486,1.3335,0.00265964
437.5,36.5945,1.34298,-0.0011
440,36.8393,1.32203,-0.00504537
442.5,37.0832,1.31511,-0.00793032
445,37.3303,1.31062,-0.0116401
447.5,37.574,1.30341,-0.0155849
450,37.82,1.29784,-0.021727
452.5,38.0661,1.29027,-0.0263254
455,38.3119,1.28551,-0.0336241
457.5,38.5574,1.28096,-0.0415199
460,38.8039,1.27255,-0.0500558
462.5,39.0492,1.27356,-0.0603425
465,39.2963,1.27371,-0.0733482
467.5,39.5421,1.28066,-0.0852486
470,39.7901,1.27407,-0.100614
472.5,40.0369,1.27789,-0.11779
475,40.2845,1.28295,-0.13658
477.5,40.5313,1.29208,-0.158058
480,40.7786,1.28973,-0.183447
482.5,41.0271,1.29756,-0.215746
485,41.2737,1.30803,-0.249608
487.5,41.5211,1.32232,-0.288655
490,41.7682,1.32314,-0.333833
492.5,42.0131,1.3586,-0.388557
495,42.2616,1.37094,-0.451694
497.5,42.5092,1.37631,-0.521539
500,42.7566,1.40926,-0.6051
502.5,43.0052,1.43282,-0.699075
505,43.253,1.47174,-0.805193
507.5,43.5019,1.50426,-0.920874
510,43.7498,1.544,-1.04723
512.5,43.9986,1.60032,-1.17645
515,44.2472,1.61854,-1.30465
517.5,44.4935,1.45563,-1.42423
520,44.7395,1.16433,-1.5346
522.5,44.983,0.846822,-1.63332
525,45.226,0.566619,-1.71944
527.5,45.4728,0.338499,-1.79283
530,45.7202,0.170962,-1.85375
532.5,45.9674,0.0895744,-1.90314
535,46.2134,0.0552724,-1.94234
537.5,46.4634,0.0401329,-1.97607
540,46.7128,0.0536288,-2.00173
542.5,46.9624,0.0781928,-2.02601
545,47.2121,0.0956482,-2.04603
547.5,47.4622,0.129789,-2.06338
550,47.7121,0.14229,-2.07781
552.5,47.9626,0.156148,-2.09106
555,48.2125,0.179896,-2.1036
557.5,48.4624,0.199393,-2.11685
560,48.7121,0.211923,-2.12654
562.5,48.9622,0.226246,-2.13877
565,49.212,0.230712,-2.14816
567.5,49.4623,0.244611,-2.15885
570,49.7122,0.245801,-2.16641
572.5,49.9625,0.256077,-2.17862
575,50.2123,0.267523,-2.18936
577.5,50.4624,0.28337,-2.20059
580,50.7126,0.306464,-2.21016
582.5,50.9623,0.322351,-2.21916
585,51.2124,0.333195,-2.22742
587.5,51.4622,0.357635,-2.23735
590,51.7135,0.372686,-2.24736
592.5,51.9643,0.38898,-2.25644
595,52.2142,0.401252,-2.26488
597.5,52.4649,0.431206,-2.27554
600,52.7161,0.443518,-2.28514
602.5,52.9678,0.449387,-2.29514
605,53.2189,0.473169,-2.3038
607.5,53.4715,0.485632,-2.31235
610,53.7225,0.494757,-2.32185
612.5,53.9747,0.516917,-2.32907
615,54.2257,0.535335,-2.33749
617.5,54.4761,0.550888,-2.34439
620,54.7274,0.560814,-2.35151
622.5,54.9779,0.588198,-2.35702
625,55.2297,0.608267,-2.36389
627.5,55.4796,0.62863,-2.37149
630,55.7315,0.645806,-2.37561
632.5,55.9827,0.664627,-2.38236
635,56.2342,0.682793,-2.38898
637.5,56.4855,0.701212,-2.39571
640,56.7362,0.697916,-2.40056
642.5,56.9869,0.713831,-2.40289
645,57.2387,0.720226,-2.40881
647.5,57.4895,0.720162,-2.41435
650,57.7408,0.731655,-2.41829
652.5,57.992,0.728613,-2.42237
655,58.2436,0.719824,-2.42763
657.5,58.4947,0.695953,-2.42895
660,58.7464,0.678001,-2.4341
662.5,58.9971,0.656097,-2.43631
665,59.249,0.63729,-2.44092
667.5,59.5013,0.621149,-2.44355
670,59.7513,0.599052,-2.44619
672.5,60.0037,0.586624,-2.44882
675,60.2555,0.575427,-2.45277
677.5,60.5087,0.563332,-2.4567
680,60.7585,0.544907,-2.45903
682.5,61.0134,0.524804,-2.46329
685,61.2654,0.504345,-2.46398
687.5,61.5193,0.493035,-2.46585
690,61.7725,0.479776,-2.46792
692.5,62.0253,0.46257,-2.4705
695,62.2776,0.45144,-2.47385
697.5,62.5298,0.43886,-2.47517
700,62.7822,0.422487,-2.4766
702.5,63.0345,0.398827,-2.47912
705,63.286,0.392763,-2.48181
707.5,63.5388,0.377382,-2.48536
710,63.7894,0.355748,-2.48661
712.5,64.0441,0.343152,-2.4873
715,64.2956,0.321883,-2.49064
717.5,64.5478,0.295571,-2.49065
720,64.8007,0.282091,-2.49329
722.5,65.0537,0.262662,-2.49592
725,65.3057,0.245792,-2.49592
727.5,65.5593,0.229385,-2.49987
730,65.8139,0.22548,-2.49888
732.5,66.0666,0.194142,-2.50151
735,66.3195,0.165858,-2.50123
737.5,66.5734,0.146595,-2.50251
740,66.8266,0.123849,-2.50514
742.5,67.0808,0.10185,-2.50582
745,67.3351,0.0942762,-2.50645
747.5,67.5884,0.0753412,-2.50777
750,67.8422,0.0485046,-2.5091
752.5,68.0953,0.024148,-2.51173
755,68.3482,0.0155563,-2.51172
757.5,68.6019,-0.00256855,-2.51404
760,68.8554,0.00388241,-2.51437
762.5,69.1102,-0.000714201,-2.51437
765,69.3643,-0.0120751,-2.51466
767.5,69.6182,-0.0243253,-2.51569
770,69.8731,-0.0576401,-2.51969
772.5,70.1275,-0.0768526,-2.51831
775,70.3807,-0.0880685,-2.51963
777.5,70.6358,-0.0921078,-2.51963
780,70.8883,-0.0909085,-2.52094
782.5,71.1429,-0.110652,-2.52303
785,71.3971,-0.110517,-2.52259
787.5,71.6513,-0.113091,-2.52488
790,71.9045,-0.109089,-2.52444