Folder: fsri_materials_database/01_Data/Neoprene_SCBA_Face_Seal/STA/N2/10K_min (part 2)

File: Neoprene_SCBA_Face_Seal_STA_N2_10KData_250915_R3.csv
Temp./C,Time/min,DSC/(mW/mg),Mass loss/mg
40.0,0.0,0.898633,-0.0158417
42.6,0.347841,0.975106,-0.0159971
45.2,0.678431,1.03943,-0.0174255
47.8,0.997865,1.09729,-0.0171986
50.4,1.30627,1.14426,-0.01742
53,1.60766,1.20801,-0.0187249
55.6,1.90058,1.27253,-0.0188566
58.2,2.19057,1.38145,-0.0188718
60.8,2.47138,1.39072,-0.0190233
63.4,2.74914,1.38346,-0.0188758
66,3.02009,1.40376,-0.0201964
68.6,3.28905,1.42651,-0.0201742
71.2,3.55743,1.464,-0.0223786
73.8,3.82511,1.49043,-0.0210711
76.4,4.0859,1.50813,-0.023707
79,4.35024,1.52729,-0.0250257
81.6,4.61114,1.54298,-0.0239539
84.2,4.87081,1.56414,-0.0262965
86.8,5.12895,1.58106,-0.0239157
89.4,5.38537,1.58117,-0.0263556
92,5.64138,1.59052,-0.0250257
94.6,5.89488,1.60169,-0.0263351
97.2,6.14817,1.60253,-0.0254406
99.8,6.40001,1.60267,-0.0276673
102.4,6.65187,1.60099,-0.0284207
105,6.90169,1.60391,-0.0279747
107.6,7.15286,1.61052,-0.0289802
110.2,7.4031,1.61967,-0.0285585
112.8,7.6542,1.63812,-0.028971
115.4,7.90207,1.64303,-0.0302941
118,8.1551,1.65097,-0.0289709
120.6,8.40255,1.66178,-0.0312748
123.2,8.65094,1.66741,-0.03161
125.8,8.90061,1.68272,-0.0305968
128.4,9.1484,1.68129,-0.03029
131,9.39667,1.69324,-0.0303024
133.6,9.64418,1.70228,-0.0311923
136.2,9.89059,1.70236,-0.0310687
138.8,10.1365,1.71633,-0.0318252
141.4,10.3836,1.70194,-0.0319304
144,10.6283,1.72116,-0.03227
146.6,10.8746,1.72324,-0.0322397
149.2,11.1199,1.73275,-0.0326162
151.8,11.3663,1.74654,-0.031911
154.4,11.6096,1.75325,-0.0332584
157,11.8556,1.75944,-0.0342721
159.6,12.0994,1.76816,-0.033829
162.2,12.3453,1.77493,-0.0352708
164.8,12.5877,1.78058,-0.03391
167.4,12.8346,1.79111,-0.0328968
170,13.08,1.8043,-0.0355611
172.6,13.326,1.80945,-0.0364334
175.2,13.5702,1.82875,-0.0372085
177.8,13.8147,1.83976,-0.0371046
180.4,14.0602,1.84377,-0.0395203
183,14.3038,1.85922,-0.03886
185.6,14.5464,1.86554,-0.0401686
188.2,14.7928,1.8727,-0.0404999
190.8,15.0379,1.87535,-0.0417645
193.4,15.2814,1.87941,-0.0444661
196,15.5257,1.89276,-0.0444269
198.6,15.77,1.89698,-0.04774
201.2,16.0145,1.91002,-0.0497201
203.8,16.2591,1.9107,-0.0509416
206.4,16.5034,1.9318,-0.0536759
209,16.7485,1.92706,-0.05631
211.6,16.9927,1.93167,-0.0585858
214.2,17.2373,1.94176,-0.06421
216.8,17.4823,1.94833,-0.0668517
219.4,17.7277,1.95585,-0.070802
222,17.9715,1.96308,-0.074749
224.6,18.2162,1.96932,-0.0798957
227.2,18.4607,1.97578,-0.0813615
229.8,18.7055,1.98244,-0.0892926
232.4,18.9512,1.99038,-0.095122
235,19.1967,1.99633,-0.101288
237.6,19.4407,2.00562,-0.108123
240.2,19.6864,2.01231,-0.116377
242.8,19.9316,2.02139,-0.123533
245.4,20.1757,2.02402,-0.132049
248,20.4225,2.03056,-0.141407
250.6,20.6675,2.03089,-0.150624
253.2,20.9134,2.03255,-0.161269
255.8,21.1591,2.03248,-0.170351
258.4,21.4035,2.03433,-0.179705
261,21.648,2.03531,-0.193077
263.6,21.8943,2.03527,-0.204608
266.2,22.1388,2.03052,-0.215736
268.8,22.3851,2.03462,-0.225148
271.4,22.6295,2.02205,-0.239717
274,22.8754,2.01869,-0.2498
276.6,23.1201,2.01302,-0.260187
279.2,23.3633,2.01491,-0.271708
281.8,23.6116,1.98737,-0.280458
284.4,23.8555,1.9815,-0.291889
287,24.1029,1.96985,-0.301667
289.6,24.3497,1.96224,-0.31047
292.2,24.5963,1.94274,-0.319349
294.8,24.8426,1.91838,-0.326023
297.4,25.0898,1.907,-0.334828
300,25.3383,1.90081,-0.342766
302.6,25.5843,1.88258,-0.348546
305.2,25.8325,1.86654,-0.356135
307.8,26.0799,1.85339,-0.364143
310.4,26.3274,1.83983,-0.370401
313,26.5752,1.82319,-0.377507
315.6,26.8248,1.79498,-0.385311
318.2,27.075,1.75177,-0.392749
320.8,27.3241,1.7141,-0.400115
323.4,27.5741,1.66536,-0.40896
326,27.8242,1.61711,-0.417691
328.6,28.0727,1.55156,-0.42776
331.2,28.3191,1.4969,-0.437172
333.8,28.5693,1.41558,-0.448558
336.4,28.8187,1.33669,-0.461863
339,29.0674,1.24867,-0.477832
341.6,29.315,1.16124,-0.493386
344.2,29.5633,1.07417,-0.511479
346.8,29.8114,0.978295,-0.532693
349.4,30.0595,0.886871,-0.556706
352,30.3094,0.790955,-0.586324
354.6,30.5561,0.729607,-0.619049
357.2,30.8067,0.663558,-0.656696
359.8,31.0572,0.617223,-0.700871
362.4,31.3076,0.594839,-0.749823
365,31.5578,0.585239,-0.805391
367.6,31.8084,0.610423,-0.870352
370.2,32.0597,0.673345,-0.940983
372.8,32.3116,0.733381,-1.02125
375.4,32.564,0.838812,-1.10867
378,32.8167,0.949691,-1.20043
380.6,33.07,1.06066,-1.29603
383.2,33.3225,1.17172,-1.39495
385.8,33.5754,1.28847,-1.49358
388.4,33.829,1.3822,-1.58822
391,34.0818,1.45726,-1.67884
393.6,34.3356,1.51625,-1.75997
396.2,34.5862,1.56893,-1.83355
398.8,34.8395,1.61159,-1.90287
401.4,35.0934,1.64561,-1.96416
404,35.347,1.6711,-2.0198
406.6,35.5989,1.69228,-2.06948
409.2,35.8527,1.70078,-2.11465
411.8,36.1058,1.71744,-2.1572
414.4,36.3582,1.73398,-2.1984
417,36.6119,1.76582,-2.23816
419.6,36.8666,1.80487,-2.27657
422.2,37.1196,1.81683,-2.31334
424.8,37.3733,1.8494,-2.35089
427.4,37.6281,1.87234,-2.38792
430,37.8818,1.89896,-2.42901
432.6,38.1367,1.93734,-2.46791
435.2,38.3906,1.96808,-2.50966
437.8,38.645,2.00326,-2.55044
440.4,38.9005,2.03886,-2.59418
443,39.1546,2.0619,-2.63938
445.6,39.4098,2.08685,-2.68437
448.2,39.6648,2.12009,-2.73262
450.8,39.9192,2.14175,-2.77777
453.4,40.1741,2.15125,-2.82737
456,40.4296,2.16393,-2.87622
458.6,40.6853,2.17785,-2.92713
461.2,40.9395,2.16554,-2.97657
463.8,41.1958,2.15383,-3.02472
466.4,41.4492,2.12441,-3.07141
469,41.7059,2.08169,-3.11517
471.6,41.9602,2.02399,-3.15665
474.2,42.2149,1.93975,-3.18916
476.8,42.4686,1.83648,-3.21846
479.4,42.7228,1.72946,-3.24231
482,42.9773,1.63065,-3.25991
484.6,43.2334,1.54185,-3.27095
487.2,43.4879,1.48412,-3.27781
489.8,43.7433,1.43902,-3.28436
492.4,44.0001,1.4169,-3.28828
495,44.2551,1.41141,-3.29194
497.6,44.5125,1.39506,-3.29358
500.2,44.7669,1.38461,-3.29364
502.8,45.0248,1.38252,-3.29543
505.4,45.2812,1.37803,-3.29704
508,45.5402,1.38388,-3.29892
510.6,45.7976,1.38668,-3.2982
513.2,46.0557,1.39191,-3.29952
515.8,46.3116,1.38015,-3.29951
518.4,46.5701,1.3802,-3.30081
521,46.8269,1.37704,-3.30082
523.6,47.0861,1.37296,-3.29984
526.2,47.3415,1.37547,-3.30247
528.8,47.5979,1.38822,-3.30313
531.4,47.8534,1.39445,-3.30248
534,48.1121,1.40813,-3.30314
536.6,48.3693,1.3922,-3.30379
539.2,48.6259,1.3876,-3.30313
541.8,48.884,1.3796,-3.30529
544.4,49.1423,1.37269,-3.30478
547,49.4005,1.37741,-3.30543
549.6,49.6593,1.36109,-3.30579
552.2,49.9184,1.36219,-3.3061
554.8,50.1773,1.3616,-3.30645
557.4,50.436,1.35128,-3.30774
560,50.6943,1.33407,-3.30708
562.6,50.9521,1.33055,-3.3084
565.2,51.2133,1.33611,-3.30743
567.8,51.4715,1.3275,-3.30775
570.4,51.7308,1.3326,-3.30906
573,51.9915,1.32549,-3.30698
575.6,52.2495,1.32364,-3.30709
578.2,52.51,1.32182,-3.30808
580.8,52.7687,1.33074,-3.30709
583.4,53.0265,1.33004,-3.3084
586,53.2877,1.32592,-3.30841
588.6,53.5469,1.32208,-3.30972
591.2,53.8084,1.32815,-3.3084
593.8,54.0674,1.30595,-3.30939
596.4,54.328,1.32252,-3.30939
599,54.588,1.31017,-3.30939
601.6,54.8475,1.31114,-3.30972
604.2,55.1079,1.30772,-3.31235
606.8,55.3675,1.30405,-3.31136
609.4,55.628,1.31711,-3.3103
612,55.8878,1.31896,-3.30934
614.6,56.149,1.33406,-3.3117
617.2,56.4089,1.33209,-3.313
619.8,56.67,1.33446,-3.3117
622.4,56.931,1.33607,-3.3117
625,57.1923,1.33927,-3.31202
627.6,57.4545,1.3493,-3.31334
630.2,57.7146,1.34357,-3.31247
632.8,57.9752,1.33318,-3.3125
635.4,58.2361,1.34864,-3.31301
638,58.495,1.34149,-3.31499
640.6,58.7564,1.3513,-3.31416
643.2,59.0172,1.35086,-3.31466
645.8,59.2786,1.35745,-3.31368
648.4,59.5406,1.35658,-3.31499
651,59.8025,1.35871,-3.315
653.6,60.0639,1.37156,-3.31433
656.2,60.3272,1.3745,-3.31502
658.8,60.5892,1.38901,-3.31644
661.4,60.851,1.39723,-3.3173
664,61.1132,1.40784,-3.31597
666.6,61.3741,1.40604,-3.31465
669.2,61.636,1.41585,-3.31564
671.8,61.8963,1.41833,-3.31663
674.4,62.158,1.42903,-3.31728
677,62.4195,1.43137,-3.31795
679.6,62.6823,1.44508,-3.31598
682.2,62.9444,1.45226,-3.3173
684.8,63.2074,1.45208,-3.31785
687.4,63.4701,1.4669,-3.31663
690,63.7336,1.47337,-3.31663
692.6,63.9949,1.48835,-3.3165
695.2,64.2574,1.47758,-3.31529
697.8,64.5201,1.50499,-3.31532
700.4,64.7832,1.50264,-3.31763
703,65.0456,1.49494,-3.31665
705.6,65.3088,1.49588,-3.31697
708.2,65.5719,1.49026,-3.31565
710.8,65.8353,1.48512,-3.31631
713.4,66.0986,1.47207,-3.31762
716,66.3624,1.47489,-3.31891
718.6,66.6244,1.47974,-3.31731
721.2,66.8885,1.47604,-3.31664
723.8,67.1517,1.46838,-3.31893
726.4,67.4135,1.45715,-3.3206
729,67.6754,1.45351,-3.3189
731.6,67.9381,1.4356,-3.31902
734.2,68.2014,1.40402,-3.32026
736.8,68.4628,1.36976,-3.32028
739.4,68.7278,1.32854,-3.32091
742,68.991,1.26604,-3.32157
744.6,69.2542,1.21358,-3.32092
747.2,69.5188,1.15624,-3.32026
749.8,69.7833,1.10014,-3.32026
752.4,70.0473,1.04541,-3.32092
755,70.3105,0.991999,-3.31958
757.6,70.5747,0.946584,-3.32156
760.2,70.8393,0.889201,-3.32158
762.8,71.102,0.84926,-3.32125
765.4,71.3669,0.813413,-3.31993
768,71.6309,0.780983,-3.32026
770.6,71.8935,0.760515,-3.32124
773.2,72.1587,0.717678,-3.32123
775.8,72.4232,0.687425,-3.32042
778.4,72.6852,0.668184,-3.3229
781,72.9512,0.62984,-3.32223
783.6,73.2153,0.601453,-3.3222
786.2,73.479,0.558441,-3.3229
788.8,73.742,0.538947,-3.32157
790,73.8648,0.536116,-3.32157