Folder: fsri_materials_database/01_Data/Neoprene_SCBA_Face_Seal/STA/N2/30K_min (part 2)

File: Neoprene_SCBA_Face_Seal_STA_N2_30KData_250915_R3.csv
Temp./C,Time/min,DSC/(mW/mg),Mass loss/mg
40.0,0.0,1.62717,0.000430155
42.6,0.161502,1.93745,-0.00133548
45.2,0.305551,2.18514,-0.00219504
47.8,0.440575,2.41088,-0.00234079
50.4,0.567951,2.60655,-0.00128772
53,0.688427,2.79169,-0.00203451
55.6,0.806192,2.98288,-0.00319945
58.2,0.919857,3.21206,-0.00304814
60.8,1.03025,3.3729,-0.00279206
63.4,1.1384,3.44352,-0.00120942
66,1.24362,3.52441,-0.00278542
68.6,1.34755,3.59445,-0.00371214
71.2,1.4503,3.68739,-0.00519988
73.8,1.55128,3.71938,-0.00369262
76.4,1.65237,3.86571,-0.00536203
79,1.75199,3.96049,-0.00693877
81.6,1.85038,4.06358,-0.00764268
84.2,1.94716,4.13268,-0.00731779
86.8,2.0431,4.22287,-0.00840116
89.4,2.13824,4.29046,-0.00924311
92,2.23188,4.36028,-0.00988192
94.6,2.3248,4.42113,-0.00857052
97.2,2.41696,4.48639,-0.00988383
99.8,2.50827,4.52602,-0.00979866
102.4,2.59916,4.55434,-0.0102705
105,2.6893,4.61761,-0.0113297
107.6,2.77899,4.61901,-0.0125682
110.2,2.86811,4.62455,-0.0119103
112.8,2.95694,4.64574,-0.0112202
115.4,3.04523,4.68649,-0.0124908
118,3.13292,4.70776,-0.0123921
120.6,3.2209,4.74119,-0.01251
123.2,3.30799,4.78054,-0.0134983
125.8,3.39445,4.83073,-0.0138153
128.4,3.47956,4.87482,-0.0138358
131,3.56557,4.92124,-0.01252
133.6,3.65076,4.9578,-0.0138378
136.2,3.73543,5.00724,-0.0131687
138.8,3.81918,5.03874,-0.0138316
141.4,3.90279,5.08171,-0.0125106
144,3.98588,5.12969,-0.0124958
146.6,4.0685,5.16705,-0.0138301
149.2,4.15075,5.21525,-0.01383
151.8,4.23334,5.2486,-0.0138299
154.4,4.31466,5.28992,-0.0131148
157,4.39622,5.31445,-0.0138288
159.6,4.47786,5.35135,-0.0151499
162.2,4.55864,5.38884,-0.0151529
164.8,4.63973,5.42135,-0.0141603
167.4,4.72019,5.43853,-0.0141565
170,4.80082,5.48379,-0.0154795
172.6,4.88122,5.52242,-0.0144842
175.2,4.96198,5.55258,-0.0148333
177.8,5.04157,5.58002,-0.01613
180.4,5.12176,5.60268,-0.0161302
183,5.20092,5.65276,-0.0154571
185.6,5.27967,5.68449,-0.0164784
188.2,5.35912,5.7232,-0.0191041
190.8,5.43804,5.75038,-0.0191008
193.4,5.51631,5.78623,-0.0204102
196,5.595,5.82822,-0.02041
198.6,5.67351,5.85168,-0.02041
201.2,5.75155,5.88768,-0.0204017
203.8,5.82916,5.92804,-0.0204129
206.4,5.90742,5.94693,-0.0231307
209,5.9857,5.97306,-0.023118
211.6,6.06375,6.00771,-0.0243668
214.2,6.14078,6.03666,-0.0256907
216.8,6.21934,6.05973,-0.0270108
219.4,6.2967,6.09206,-0.0287732
222,6.37373,6.11114,-0.0309549
224.6,6.45201,6.13077,-0.0316106
227.2,6.52929,6.15755,-0.0346392
229.8,6.60685,6.18824,-0.0373375
232.4,6.68434,6.20145,-0.0400441
235,6.76084,6.22114,-0.0439955
237.6,6.83782,6.2316,-0.0451214
240.2,6.91588,6.25336,-0.0480029
242.8,6.9931,6.26588,-0.0524879
245.4,7.07008,6.27667,-0.05554
248,7.14716,6.29349,-0.0592792
250.6,7.22404,6.29231,-0.0646405
253.2,7.30106,6.29491,-0.0692582
255.8,7.3779,6.30026,-0.0746255
258.4,7.45499,6.30443,-0.0824225
261,7.53187,6.34256,-0.0860597
263.6,7.60891,6.33926,-0.0930653
266.2,7.68563,6.29726,-0.100806
268.8,7.76181,6.32363,-0.107692
271.4,7.83948,6.3353,-0.115528
274,7.9163,6.33644,-0.12314
276.6,7.99329,6.33893,-0.131562
279.2,8.07025,6.34199,-0.139865
281.8,8.14713,6.33062,-0.151514
284.4,8.22437,6.30277,-0.159916
287,8.30104,6.29233,-0.169393
289.6,8.37728,6.26686,-0.18018
292.2,8.45471,6.24407,-0.190691
294.8,8.53166,6.22395,-0.201168
297.4,8.60894,6.18642,-0.21038
300,8.68588,6.15836,-0.220303
302.6,8.76252,6.11202,-0.232657
305.2,8.84027,6.05653,-0.244027
307.8,8.91743,6.02268,-0.253383
310.4,8.99428,5.96637,-0.264062
313,9.07135,5.92366,-0.274493
315.6,9.14853,5.85959,-0.283483
318.2,9.22583,5.8082,-0.29452
320.8,9.3024,5.74111,-0.303343
323.4,9.37984,5.67251,-0.31201
326,9.45715,5.59153,-0.322365
328.6,9.53433,5.52562,-0.331479
331.2,9.61188,5.44272,-0.340229
333.8,9.68889,5.34754,-0.349794
336.4,9.76616,5.24519,-0.359366
339,9.84312,5.13141,-0.368391
341.6,9.92075,5.01205,-0.37664
344.2,9.99825,4.87276,-0.386028
346.8,10.0755,4.72682,-0.401606
349.4,10.1529,4.5691,-0.410154
352,10.2301,4.37755,-0.42379
354.6,10.3078,4.18048,-0.436961
357.2,10.3847,3.96545,-0.451112
359.8,10.4622,3.72796,-0.468916
362.4,10.5394,3.48725,-0.489154
365,10.6173,3.22993,-0.510541
367.6,10.6947,2.96593,-0.536427
370.2,10.7724,2.69624,-0.564626
372.8,10.8502,2.4342,-0.59875
375.4,10.9277,2.21913,-0.635589
378,11.006,2.0217,-0.678587
380.6,11.0843,1.86431,-0.727858
383.2,11.1624,1.75231,-0.782255
385.8,11.2417,1.69741,-0.84602
388.4,11.3205,1.70452,-0.917129
391,11.3999,1.78006,-0.995107
393.6,11.4793,1.88043,-1.07863
396.2,11.5593,2.04157,-1.17115
398.8,11.639,2.21837,-1.26645
401.4,11.7191,2.39649,-1.36489
404,11.7995,2.5718,-1.46318
406.6,11.8794,2.72238,-1.5594
409.2,11.9595,2.8479,-1.64791
411.8,12.0396,2.94726,-1.71894
414.4,12.1193,3.01823,-1.79993
417,12.2,3.07506,-1.87165
419.6,12.28,3.11989,-1.93769
422.2,12.3599,3.15366,-2.00096
424.8,12.4404,3.18562,-2.05642
427.4,12.5207,3.21888,-2.10689
430,12.6012,3.25793,-2.15607
432.6,12.6818,3.29152,-2.19888
435.2,12.7625,3.34523,-2.24151
437.8,12.8432,3.39517,-2.28242
440.4,12.9237,3.45419,-2.32151
443,13.0049,3.51713,-2.35722
445.6,13.0856,3.58609,-2.39725
448.2,13.1667,3.65362,-2.43505
450.8,13.2478,3.7348,-2.47432
453.4,13.3291,3.80758,-2.51112
456,13.4101,3.88831,-2.55046
458.6,13.4912,3.96184,-2.591
461.2,13.5729,4.02627,-2.63374
463.8,13.6539,4.08768,-2.67614
466.4,13.7354,4.13512,-2.71715
469,13.8169,4.17341,-2.76044
471.6,13.8981,4.22501,-2.80348
474.2,13.9796,4.23819,-2.84767
476.8,14.0611,4.22832,-2.8945
479.4,14.1424,4.20889,-2.93752
482,14.2237,4.14797,-2.98272
484.6,14.3055,4.06854,-3.0274
487.2,14.3862,3.95626,-3.0668
489.8,14.468,3.8137,-3.10595
492.4,14.5492,3.6374,-3.14003
495,14.6302,3.4112,-3.17424
497.6,14.7112,3.17605,-3.19854
500.2,14.7924,2.90933,-3.21921
502.8,14.8735,2.67016,-3.23545
505.4,14.9549,2.45503,-3.24746
508,15.0364,2.30031,-3.25456
510.6,15.118,2.17817,-3.25944
513.2,15.1995,2.07935,-3.26373
515.8,15.282,2.01988,-3.26652
518.4,15.3644,1.96386,-3.26812
521,15.4467,1.93291,-3.26945
523.6,15.5294,1.90445,-3.27201
526.2,15.6117,1.87197,-3.27169
528.8,15.6944,1.85319,-3.27306
531.4,15.7772,1.84091,-3.27438
534,15.8596,1.80187,-3.27569
536.6,15.9427,1.79814,-3.27569
539.2,16.0256,1.77259,-3.27536
541.8,16.1083,1.76451,-3.27668
544.4,16.1915,1.75653,-3.27668
547,16.2746,1.73977,-3.27569
549.6,16.3577,1.71506,-3.27702
552.2,16.4405,1.71562,-3.27832
554.8,16.5242,1.70234,-3.27833
557.4,16.6072,1.69463,-3.27964
560,16.6904,1.6753,-3.27964
562.6,16.7735,1.67957,-3.2803
565.2,16.8574,1.66712,-3.27919
567.8,16.941,1.65814,-3.27931
570.4,17.0246,1.64689,-3.27931
573,17.1083,1.63791,-3.27931
575.6,17.1917,1.62356,-3.27801
578.2,17.2753,1.61227,-3.27961
580.8,17.359,1.59569,-3.28096
583.4,17.4429,1.59598,-3.28096
586,17.5262,1.58243,-3.28096
588.6,17.6109,1.57184,-3.28097
591.2,17.6947,1.57092,-3.27823
593.8,17.7788,1.5632,-3.27723
596.4,17.863,1.54584,-3.27724
599,17.947,1.53672,-3.27988
601.6,18.031,1.52501,-3.28245
604.2,18.1154,1.5196,-3.28118
606.8,18.2002,1.51153,-3.2825
609.4,18.2846,1.51762,-3.2825
612,18.3688,1.50987,-3.28168
614.6,18.4532,1.5094,-3.28328
617.2,18.5379,1.50288,-3.28382
619.8,18.6226,1.48109,-3.28513
622.4,18.7074,1.47584,-3.28455
625,18.7918,1.47388,-3.28382
627.6,18.8767,1.45422,-3.28511
630.2,18.9616,1.45063,-3.2849
632.8,19.0464,1.44246,-3.2836
635.4,19.1308,1.44254,-3.28492
638,19.2161,1.42539,-3.28492
640.6,19.301,1.43156,-3.28523
643.2,19.3857,1.42347,-3.28492
645.8,19.4706,1.42021,-3.28623
648.4,19.5557,1.4111,-3.28623
651,19.6407,1.40592,-3.28755
653.6,19.7257,1.39578,-3.28887
656.2,19.8104,1.37976,-3.28854
658.8,19.8958,1.36431,-3.28854
661.4,19.9809,1.34133,-3.28854
664,20.0663,1.31463,-3.28854
666.6,20.1513,1.30679,-3.28878
669.2,20.2364,1.29618,-3.29018
671.8,20.3215,1.27138,-3.29018
674.4,20.4068,1.26509,-3.29018
677,20.4922,1.24868,-3.29023
679.6,20.5778,1.24038,-3.29018
682.2,20.663,1.21172,-3.29064
684.8,20.7488,1.20098,-3.2915
687.4,20.8337,1.1885,-3.2915
690,20.9188,1.17334,-3.29137
692.6,21.0049,1.15157,-3.29173
695.2,21.0904,1.13087,-3.29036
697.8,21.1758,1.11803,-3.29172
700.4,21.2613,1.09172,-3.29172
703,21.347,1.0883,-3.29178
705.6,21.4327,1.06359,-3.29304
708.2,21.5184,1.04909,-3.29339
710.8,21.6038,1.03364,-3.29304
713.4,21.6892,1.01548,-3.29302
716,21.7756,1.00472,-3.29204
718.6,21.861,0.975459,-3.29172
721.2,21.9466,0.955049,-3.29402
723.8,22.033,0.938466,-3.29402
726.4,22.1191,0.914485,-3.2927
729,22.2053,0.90101,-3.29391
731.6,22.2911,0.890221,-3.29634
734.2,22.377,0.874156,-3.29634
736.8,22.4629,0.856166,-3.29666
739.4,22.5491,0.856043,-3.29651
742,22.635,0.834437,-3.29765
744.6,22.7214,0.823856,-3.29603
747.2,22.8076,0.811751,-3.29731
749.8,22.8935,0.793424,-3.29755
752.4,22.9797,0.78311,-3.29733
755,23.0659,0.779582,-3.29863
757.6,23.1523,0.762519,-3.29863
760.2,23.2383,0.740352,-3.29863
762.8,23.3244,0.734209,-3.29822
765.4,23.4108,0.732389,-3.2984
768,23.497,0.727049,-3.29729
770.6,23.5833,0.709503,-3.2987
773.2,23.6698,0.702808,-3.2981
775.8,23.7557,0.688162,-3.29995
778.4,23.8422,0.676886,-3.29864
781,23.9286,0.670989,-3.29995
783.6,24.0149,0.656953,-3.29995
786.2,24.1015,0.660713,-3.30127
788.8,24.1877,0.638395,-3.30122
790,24.2276,0.635251,-3.3026