Folder: fsri_materials_database/02_Data/Polyester_Fabric/Cone

File: Polyester_Fabric_Cone_HF25Scalar_210324_R1.csv
LABORATORY,FSRI
TEST IDENT,Fabric
OPERATOR,Morrissey
MATERIAL,Polyester Microfiber Fabric
ORIENTATION,Horizontal
HEAT FLUX,25
SURF AREA,0.01
C FACTOR,0.0386052
SPEC HOLDER DIFF,-87.37
SPECIMEN MASS,1.93
SCAN TIME,0.25
O2 DELAY TIME,11
CO DELAY TIME,11
CO2 DELAY TIME,8
FLOW FACTOR,1
SCAN COUNT,1638
TIME TO IGN,240.75
END OF TEST SCAN,1158
END OF TEST TIME,289.5
TEST STATUS,1
PRE TEST CMT,test w/o retainer grid or frame
POST TEST CMT,the sample folded into itself towards the spark igniter.

File: Polyester_Fabric_Cone_HF25Scan_210324_R1.csv
Names,Time,Stack TC,Smoke TC,Exh Press,Smoke Comp,Smoke Meas,CO Meter,CO2 Meter,O2 Meter,Sample Mass,Ext Coeff,Start Test,Flame Verif
Chan Gain,,500,500,1,1,1,1,1,1,1,1,1.0,1.0
Offset,,0,0,0.194005,0,0,0,0,0,0,0,0.0,0.0
Gain,,1,1,25.011,13.5067,16.616,1,1,1,1.00091,1.04608,1.0,1.0
Units,sec,C,C,Pa,%,%,%,%,%,g,/m,,
Baseline,,20.1097,21.658,167.525,100.013,99.1211,0.00077079,0.0996331,20.8774,-1.34752,0.08221,,
17,4,17.9265,18.9907,167.224,100.025,99.2202,0.000514501,0.108701,20.736,480.617,0.0741153,0.0,0.0
34,8.25,17.7126,19.5241,166.76,100.026,99.1477,0.000577399,0.108539,20.733,484.761,0.0809,0.0,0.0
51,12.5,18.262,19.8766,165.947,100.052,99.1431,0.000871553,0.108897,20.7266,480.227,0.0837425,0.0,0.0
68,16.75,18.1049,19.8988,167.255,100.076,99.1218,0.00064727,0.109852,20.7211,480.187,0.0879061,0.0,0.0
85,21,18.7168,20.2167,170.612,100.087,99.1766,0.000322216,0.111643,20.7157,480.177,0.0838206,0.0,0.0
102,25.25,18.881,20.0159,169.265,100.112,99.0873,0.000355278,0.114569,20.7081,480.157,0.0943861,0.0,0.0
119,29.5,18.4394,20.4414,169.778,100.149,99.2617,0.000171733,0.116747,20.7029,480.137,0.081646,0.0,0.0
136,33.75,18.9631,21.0052,164.959,100.169,99.3104,0.00040185,0.118229,20.7005,480.147,0.0790359,0.0,0.0
153,38,18.7247,20.7171,169.624,100.209,99.3626,0.000641708,0.119401,20.7018,480.137,0.0777974,0.0,0.0
170,42.25,18.5784,20.1545,172.56,100.25,99.3464,0.000708609,0.120016,20.7029,480.137,0.0830694,0.0,0.0
187,46.5,18.7425,20.6542,168.911,100.279,99.3966,0.000689734,0.121332,20.7024,480.147,0.0811125,0.0,0.0
204,50.75,18.1919,19.931,169.078,100.332,99.3885,0.00073719,0.122295,20.7102,480.157,0.0866882,0.0,0.0
221,55,18.5782,20.3565,169.799,100.385,99.5716,0.000624388,0.121455,20.7165,480.137,0.0747024,0.0,0.0
238,59.25,18.3882,20.0934,165.833,100.407,99.6045,0.000379302,0.119554,20.7176,480.137,0.0736238,0.0,0.0
255,63.5,18.4245,19.9641,167.885,100.463,99.6,0.000308923,0.117615,20.7178,480.157,0.0791292,0.0,0.0
272,67.75,18.2319,20.2887,168.757,100.513,99.5102,0.00037105,0.116408,20.7178,480.147,0.091993,0.0,0.0
289,72,18.5985,20.0558,170.516,100.557,99.6791,0.00023796,0.115289,20.7193,480.117,0.080424,0.0,0.0
306,76.25,18.3812,20.2021,166.785,100.601,99.7333,0.000419314,0.11517,20.7217,480.137,0.0794925,0.0,0.0
323,80.5,18.6767,20.067,169.155,100.661,99.7688,0.000566703,0.115248,20.7156,480.137,0.0816763,0.0,0.0
340,84.75,18.107,20.2064,164.891,100.7,99.819,0.000519001,0.117657,20.7096,480.127,0.0806669,0.0,0.0
357,89,18.3572,20.0548,166.482,100.737,99.8069,0.000765756,0.118952,20.7139,480.127,0.0850898,0.0,0.0
374,93.25,17.8974,19.7401,165.902,100.796,99.9498,0.000530651,0.119122,20.7144,480.107,0.077396,0.0,0.0
391,97.5,18.2565,20.0011,166.464,100.831,99.8758,0.000260916,0.119248,20.7124,480.127,0.0873839,0.0,0.0
408,101.75,18.5808,20.5774,168.524,100.864,100.009,0.000597943,0.119738,20.7111,480.097,0.0781488,0.0,0.0
425,106,18.4706,20.5219,165.199,100.913,99.9808,0.000599653,0.120624,20.7125,480.117,0.085132,0.0,0.0
442,110.25,18.6554,19.7671,167.465,100.963,99.9945,0.00043934,0.120143,20.7163,480.097,0.0884099,0.0,0.0
459,114.5,18.2017,19.7198,167.427,101.013,100.111,0.00036677,0.119424,20.7144,480.127,0.0823669,0.0,0.0
476,118.75,18.4725,20.01,166.076,101.038,100.07,0.000495163,0.118981,20.715,480.107,0.0883319,0.0,0.0
493,123,18.1556,19.8714,164.486,101.08,100.032,0.000790815,0.118397,20.7169,480.107,0.0955997,0.0,0.0
510,127.25,18.3051,19.9006,168.072,101.101,100.191,0.000483394,0.116721,20.721,480.117,0.0829978,0.0,0.0
527,131.5,18.3983,20.1092,170.848,101.133,100.115,0.000317752,0.114986,20.7212,480.087,0.0928843,0.0,0.0
544,135.75,18.7374,20.1713,167.327,101.179,100.175,0.000311254,0.114625,20.7157,480.087,0.0914689,0.0,0.0
561,140,18.6781,20.0983,163.702,101.214,100.272,0.000582294,0.115684,20.7131,480.097,0.0858527,0.0,0.0
578,144.25,18.2157,20.1549,168.979,101.236,100.241,0.000807085,0.116434,20.7159,480.067,0.0905807,0.0,0.0
595,148.5,18.2624,19.7972,166.308,101.288,100.204,0.0006678,0.115841,20.716,480.107,0.0987591,0.0,0.0
612,152.75,18.2777,20.2911,171.164,101.306,100.186,0.000473555,0.115648,20.7125,480.077,0.102036,0.0,0.0
629,157,18.0594,20.2206,165.971,101.329,100.265,0.000446836,0.116771,20.7113,480.087,0.0968012,0.0,0.0
646,161.25,18.8101,20.5767,166.473,101.349,100.302,0.000320823,0.117104,20.7085,480.097,0.0952901,0.0,0.0
663,165.5,18.5801,20.1282,163.746,101.362,100.337,0.000434,0.117366,20.7059,480.087,0.0933207,0.0,0.0
680,169.75,18.6802,20.1962,168.858,101.354,100.287,0.000283587,0.11715,20.7055,480.087,0.0970827,0.0,0.0
697,174,19.0226,20.4425,169.426,101.379,100.357,0.000278094,0.116564,20.7073,480.077,0.0929958,0.0,0.0
714,178.25,18.306,20.3742,163.629,101.379,100.34,0.000500901,0.116065,20.7081,480.077,0.0945344,0.0,0.0
731,182.5,18.7286,20.1442,164.499,101.366,100.35,0.000565489,0.115389,20.7106,480.087,0.0924511,0.0,0.0
748,186.75,18.8801,20.2971,162.793,101.352,100.33,0.000530114,0.114893,20.7081,480.057,0.0929991,0.0,0.0
765,191,19.0212,20.596,166.992,101.355,100.423,0.0004242,0.115647,20.7078,480.067,0.084731,0.0,0.0
782,195.25,18.7474,20.1965,167.039,101.347,100.328,0.000592295,0.116236,20.7118,480.057,0.092737,0.0,0.0
799,199.5,18.5778,20.5559,166.307,101.339,100.358,0.000441,0.115944,20.7152,480.067,0.0892917,0.0,0.0
816,203.75,19.6478,20.5296,168.401,101.348,100.253,0.000246398,0.115319,20.7152,480.047,0.0996692,0.0,0.0
833,208,18.7846,20.5426,165.363,101.365,100.248,0.000218151,0.114687,20.7146,480.077,0.10171,0.0,0.0
850,212.25,19.2616,20.8412,167.46,101.345,100.377,0.000279145,0.114171,20.7121,480.087,0.0880903,0.0,0.0
867,216.5,19.0507,20.389,167.067,101.317,100.184,0.000242691,0.114243,20.7086,480.087,0.103194,0.0,0.0
884,220.75,18.9031,20.2689,164.115,101.311,100.395,0.000209764,0.11448,20.7033,480.067,0.083323,0.0,0.0
901,225,19.4439,21.0872,163.937,101.28,100.294,0.00033551,0.11434,20.7027,480.047,0.0898344,0.0,0.0
918,229.25,18.6424,20.6955,171.571,101.276,100.278,0.000388801,0.114108,20.7015,480.037,0.0908526,0.0,0.0
935,233.5,19.1982,20.974,163.029,101.285,100.347,0.000478389,0.114439,20.701,480.037,0.0853661,0.0,0.0
952,237.75,19.1257,20.6205,164.84,101.303,100.187,0.000461385,0.115002,20.7027,480.037,0.101674,0.0,0.0
969,242,19.2546,20.3434,162.958,101.3125,99.568,0.000446852,0.116244,20.7001,479.967,0.159378,0.0,1.0
986,246.25,17.792,20.0413,161.099,101.348,97.0615,0.000593365,0.120676,20.6813,480.017,0.396504,0.0,1.0
1003,250.5,18.892,20.9541,164.302,101.38,94.6793,0.00125901,0.131894,20.6495,479.877,0.627442,0.0,0.0
1020,254.75,19.9425,22.3028,163.546,101.398,92.1413,0.00223183,0.148592,20.6176,479.767,0.878448,0.0,0.0
1037,259,20.4272,23.4666,163.345,101.42,91.828,0.00298964,0.168587,20.5962,479.577,0.911649,0.0,0.0
1054,263.25,21.5781,24.7384,158.165,101.445,87.6375,0.00406966,0.189598,20.5582,479.356,1.34256,0.0,0.0
1071,267.5,23.0117,28.3327,161.018,101.466,81.7792,0.00659659,0.219949,20.4771,479.026,1.97928,0.0,0.0
1088,271.75,25.512,31.5811,158.511,101.505,86.9788,0.00779875,0.262029,20.4308,478.656,1.41723,0.0,0.0
1105,276,25.4057,31.2033,164.012,101.517,94.8375,0.00546512,0.28961,20.4863,478.456,0.624536,0.0,0.0
1122,280.25,24.6054,29.0951,166.854,101.543,98.7019,0.00308402,0.283335,20.5794,478.415,0.260429,0.0,0.0
1139,284.5,23.6325,27.1234,170.432,101.574,100.623,0.001861,0.256125,20.6405,478.355,0.0863252,0.0,0.0
1156,288.75,22.3153,25.3313,166.666,101.59,100.782,0.0016919,0.223364,20.4281,478.385,0.0732234,0.0,0.0
1173,293,20.6083,23.3993,167.324,101.62,100.757,0.00158691,0.200856,20.1269,478.385,0.0782865,0.0,0.0
1190,297.25,20.5033,22.4362,167.606,101.636,100.644,0.00136675,0.19596,20.1345,478.365,0.0900045,0.0,0.0
1207,301.5,19.9847,21.547,167.491,101.668,100.673,0.0012656,0.195429,20.574,478.365,0.0902255,0.0,0.0
1224,305.75,19.5583,21.2471,168.936,101.68,100.655,0.00096499,0.195265,20.6471,478.355,0.0929687,0.0,0.0
1241,310,19.0037,20.1894,166.502,101.684,100.65,0.000998595,0.194965,20.6596,478.365,0.0938112,0.0,0.0
1258,314.25,18.2281,20.1204,169.871,101.693,100.744,0.00125367,0.19487,20.6621,478.355,0.0859513,0.0,0.0
1275,318.5,18.6399,19.7805,166.102,101.702,100.73,0.00131407,0.194893,20.6626,478.395,0.0881011,0.0,0.0
1292,322.75,18.2351,20.035,169.404,101.71,100.74,0.00109959,0.194933,20.6626,478.355,0.0879668,0.0,0.0
1309,327,18.2119,19.8646,168.936,101.735,100.776,0.00118363,0.194846,20.6626,478.345,0.0869093,0.0,0.0
1326,331.25,17.8977,19.5038,167.966,101.735,100.774,0.00116791,0.194767,20.6641,478.365,0.0870198,0.0,0.0
1343,335.5,18.0742,19.4841,164.093,101.747,100.693,0.0012953,0.194812,20.663,478.405,0.0954893,0.0,0.0
1360,339.75,18.4077,19.3892,167.533,101.755,100.706,0.00113888,0.194599,20.6627,478.385,0.0950313,0.0,0.0
1377,344,18.3478,20.0687,170.222,101.76,100.753,0.00120958,0.194468,20.6622,478.375,0.0913107,0.0,0.0
1394,348.25,17.9618,19.9018,169.724,101.762,100.866,0.00145966,0.194466,20.6622,478.365,0.0811667,0.0,0.0
1411,352.5,18.3557,19.5846,163.813,101.732,100.779,0.00166661,0.19445,20.6623,478.375,0.0863447,0.0,0.0
1428,356.75,18.2219,19.2809,167.588,101.759,100.722,0.00145306,0.194446,20.6624,478.345,0.0940548,0.0,0.0
1445,361,18.1333,19.5508,169.301,101.763,100.774,0.00117869,0.19427,20.6624,478.375,0.0895474,0.0,0.0
1462,365.25,17.8931,19.1331,168.752,101.761,100.649,0.00127745,0.194409,20.663,478.365,0.100849,0.0,0.0
1479,369.5,17.7066,19.2066,170.57,101.766,100.701,0.00132053,0.194414,20.6622,478.365,0.096496,0.0,0.0
1496,373.75,17.4415,19.0118,168.871,101.762,100.728,0.00116826,0.194339,20.6621,478.365,0.0936769,0.0,0.0
1513,378,17.7264,18.9667,169.564,101.754,100.733,0.00128682,0.193931,20.6623,478.365,0.092554,0.0,0.0
1530,382.25,17.7275,19.3368,169.081,101.743,100.752,0.00158257,0.193964,20.6623,478.375,0.0898333,0.0,0.0
1547,386.5,17.4732,18.9887,168.534,101.729,100.73,0.00168814,0.194098,20.663,478.375,0.0905547,0.0,0.0
1564,390.75,17.5998,19.1136,165.856,101.726,100.683,0.00164533,0.194087,20.6639,478.365,0.094555,0.0,0.0
1581,395,17.7551,18.9285,170.414,101.727,100.66,0.00159046,0.194001,20.6645,478.345,0.0967926,0.0,0.0
1598,399.25,17.65,18.8295,170.903,101.737,100.747,,0.193956,,478.365,0.0897369,0.0,0.0
1615,403.5,17.7225,19.3227,167.965,101.739,100.669,,,,478.375,0.0970383,0.0,0.0
1632,407.75,17.3331,18.8366,163.035,101.717,100.676,,,,478.335,0.0943374,0.0,0.0
1638,409.25,17.9904,18.7169,167.974,101.728,100.839,,,,478.345,0.0805628,0.0,0.0

File: Polyester_Fabric_Cone_HF50Scalar_210326_R1.csv
LABORATORY,FSRI
TEST IDENT,fabric_HF50_1
OPERATOR,Dow
MATERIAL,PE microfiber fabric
ORIENTATION,Horizontal
HEAT FLUX,50
SURF AREA,0.01
C FACTOR,0.0386052
SPEC HOLDER DIFF,-99.96
SPECIMEN MASS,1.89
SCAN TIME,0.25
O2 DELAY TIME,11
CO DELAY TIME,11
CO2 DELAY TIME,8
FLOW FACTOR,1
SCAN COUNT,690
TIME TO IGN,20
END OF TEST SCAN,210
END OF TEST TIME,52.5
TEST STATUS,1
PRE TEST CMT,without frame or grid
POST TEST CMT,sample shriveled toward center at start of exposure