Folder: fsri_materials_database/01_Data/Helmet_Buckle/STA/N2/10K_min (part 2)

File: Helmet_Buckle_STA_N2_10KData_250306_R3.csv
Temp./C,Time/min,DSC/(mW/mg),Mass loss/mg
60.0,0.0,0.91738,-0.0100317
62.3,0.299251,1.00224,-0.00729304
64.6,0.584875,1.05907,-0.0120247
66.9,0.862114,1.10654,-0.0111799
69.2,1.13033,1.07897,-0.0110171
71.5,1.39179,1.0575,-0.0127503
73.8,1.64908,1.0442,-0.0137577
76.1,1.90296,1.04166,-0.0126062
78.4,2.15207,1.06686,-0.0144838
80.7,2.39658,1.08327,-0.0140456
83,2.64156,1.11964,-0.0102484
85.3,2.88259,1.14695,-0.0164125
87.6,3.12122,1.17755,-0.0158453
89.9,3.35511,1.2035,-0.012519
92.2,3.5896,1.23786,-0.0144082
94.5,3.82131,1.27157,-0.0153701
96.8,4.05099,1.30027,-0.0123229
99.1,4.27818,1.33085,-0.0111761
101.4,4.50671,1.35866,-0.0151635
103.7,4.73044,1.38026,-0.0192169
106,4.95659,1.41424,-0.0123066
108.3,5.1832,1.4288,-0.0164913
110.6,5.40694,1.45296,-0.0166907
112.9,5.63063,1.46945,-0.0146346
115.2,5.85376,1.4912,-0.018244
117.5,6.07662,1.5058,-0.0183668
119.8,6.29912,1.52081,-0.0163043
122.1,6.5208,1.5259,-0.0157004
124.4,6.74345,1.54542,-0.0171287
126.7,6.9643,1.55613,-0.014415
129,7.18617,1.57116,-0.0172542
131.3,7.40644,1.58346,-0.0186328
133.6,7.62638,1.60922,-0.0159205
135.9,7.84681,1.61704,-0.017296
138.2,8.06518,1.62972,-0.0165057
140.5,8.28471,1.63684,-0.0164801
142.8,8.50287,1.65183,-0.0104567
145.1,8.72175,1.66435,-0.010482
147.4,8.94025,1.6698,-0.0168419
149.7,9.1579,1.67732,-0.0269213
152,9.37556,1.69199,-0.0221181
154.3,9.59292,1.70959,-0.0105824
156.6,9.80835,1.71739,-0.0167961
158.9,10.0269,1.7276,-0.0148792
161.2,10.2422,1.73677,-0.0232573
163.5,10.4614,1.74618,-0.0204267
165.8,10.677,1.74786,-0.0190241
168.1,10.8967,1.76632,-0.01713
170.4,11.1138,1.76239,-0.0204094
172.7,11.3323,1.78095,-0.0191098
175,11.5505,1.78227,-0.0248108
177.3,11.768,1.78856,-0.0187369
179.6,11.9845,1.79472,-0.0195623
181.9,12.2026,1.80663,-0.0176495
184.2,12.4204,1.80653,-0.0223796
186.5,12.6374,1.81953,-0.01625
188.8,12.8548,1.82179,-0.00691484
191.1,13.0708,1.83479,-0.0277692
193.4,13.2884,1.83711,-0.0188796
195.7,13.5054,1.83799,-0.0189189
198,13.7223,1.84668,-0.0194635
200.3,13.9388,1.85486,-0.0203997
202.6,14.1565,1.858,-0.0254391
204.9,14.3729,1.86492,-0.0298323
207.2,14.59,1.87871,-0.0205295
209.5,14.8074,1.90358,-0.0171153
211.8,15.0241,1.9115,-0.0208738
214.1,15.2433,1.91185,-0.0253394
216.4,15.4586,1.93272,-0.0217614
218.7,15.6772,1.94832,-0.0173261
221,15.8947,1.96725,-0.0169012
223.3,16.1129,1.98837,-0.0239325
225.6,16.3298,2.00884,-0.0265521
227.9,16.548,2.0299,-0.0257329
230.2,16.766,2.05075,-0.0249204
232.5,16.985,2.08118,-0.0188949
234.8,17.2025,2.10504,-0.0250339
237.1,17.4197,2.12324,-0.0218655
239.4,17.6383,2.16431,-0.0278605
241.7,17.8565,2.20508,-0.0284839
244,18.0757,2.27539,-0.0257795
246.3,18.2949,2.41269,-0.0243029
248.6,18.515,2.60878,-0.0249197
250.9,18.7389,3.00231,-0.023515
253.2,18.9655,3.81346,-0.0264566
255.5,19.1938,4.60985,-0.019546
257.8,19.4193,5.18602,-0.0280866
260.1,19.6452,5.79089,-0.0254624
262.4,19.8682,6.13271,-0.02953
264.7,20.0619,3.88782,-0.0308528
267,20.2648,2.53903,-0.0308501
269.3,20.4771,2.16852,-0.02558
271.6,20.6931,2.06263,-0.0254649
273.9,20.9102,2.02761,-0.0268995
276.2,21.1288,2.02041,-0.0273059
278.5,21.3484,2.01085,-0.0309691
280.8,21.5666,2.00646,-0.03096
283.1,21.7852,2.01206,-0.0309231
285.4,22.0038,2.01711,-0.0280023
287.7,22.2228,2.01338,-0.0294673
290,22.4402,2.0138,-0.0264591
292.3,22.6582,2.00949,-0.0299739
294.6,22.8807,2.01173,-0.0281923
296.9,23.0997,2.00226,-0.0314184
299.2,23.3188,2.00421,-0.0316124
301.5,23.5383,2.00361,-0.0296427
303.8,23.7584,1.98798,-0.035338
306.1,23.9783,1.99221,-0.0342515
308.4,24.1985,1.98545,-0.0370853
310.7,24.4187,1.99031,-0.0344085
313,24.6397,1.98657,-0.0377678
315.3,24.8596,1.99307,-0.03634
317.6,25.0803,1.99296,-0.0386953
319.9,25.3015,1.99983,-0.038613
322.2,25.5216,2.0006,-0.0366888
324.5,25.7433,2.00362,-0.0379978
326.8,25.9639,2.00971,-0.0445021
329.1,26.1858,2.00777,-0.0459927
331.4,26.407,2.01889,-0.0418583
333.7,26.6277,2.01302,-0.0463185
336,26.8499,2.03737,-0.0502081
338.3,27.0715,2.04462,-0.0514837
340.6,27.2934,2.06785,-0.053875
342.9,27.5162,2.08591,-0.0622628
345.2,27.7384,2.10204,-0.0558229
347.5,27.9595,2.13002,-0.0567377
349.8,28.1831,2.16236,-0.0625611
352.1,28.4056,2.20463,-0.0631288
354.4,28.6294,2.25907,-0.071595
356.7,28.8527,2.32475,-0.0726981
359,29.0735,2.40452,-0.0759734
361.3,29.2998,2.49973,-0.0801662
363.6,29.5223,2.59423,-0.0849208
365.9,29.7464,2.65893,-0.101592
368.2,29.9697,2.72982,-0.112051
370.5,30.1926,2.76908,-0.122774
372.8,30.4162,2.8359,-0.128011
375.1,30.6398,2.89063,-0.142714
377.4,30.8628,2.92317,-0.156649
379.7,31.086,3.00224,-0.169078
382,31.3093,3.05003,-0.18915
384.3,31.5344,3.12976,-0.214611
386.6,31.7593,3.3358,-0.250641
388.9,31.9849,3.47431,-0.271955
391.2,32.2117,3.64424,-0.312719
393.5,32.4367,3.78141,-0.342865
395.8,32.6621,3.91631,-0.385634
398.1,32.8879,4.06807,-0.435829
400.4,33.1134,4.21021,-0.480861
402.7,33.3393,4.35461,-0.530886
405,33.5651,4.47118,-0.588562
407.3,33.7918,4.60709,-0.659346
409.6,34.0199,4.78915,-0.72581
411.9,34.2469,4.91429,-0.799508
414.2,34.4748,5.07297,-0.885672
416.5,34.7021,5.18061,-0.965492
418.8,34.9289,5.28056,-1.056
421.1,35.1563,5.37727,-1.16296
423.4,35.3827,5.45955,-1.26658
425.7,35.6097,5.53005,-1.37258
428,35.837,5.56215,-1.4918
430.3,36.0632,5.56252,-1.61828
432.6,36.288,5.53734,-1.74786
434.9,36.5129,5.4343,-1.8789
437.2,36.7361,5.29705,-2.01879
439.5,36.9597,5.11302,-2.1511
441.8,37.1831,4.88414,-2.28976
444.1,37.4057,4.61489,-2.41915
446.4,37.6274,4.30382,-2.54959
448.7,37.8497,3.96495,-2.67958
451,38.0698,3.60194,-2.79561
453.3,38.2921,3.23114,-2.90653
455.6,38.5137,2.85114,-3.01386
457.9,38.7352,2.50268,-3.11365
460.2,38.9576,2.15315,-3.20902
462.5,39.1814,1.89529,-3.28998
464.8,39.4045,1.62564,-3.3676
467.1,39.6289,1.38042,-3.43537
469.4,39.8527,1.15626,-3.49905
471.7,40.0787,0.958372,-3.56312
474,40.3021,0.774162,-3.60616
476.3,40.5264,0.619473,-3.64914
478.6,40.7515,0.484193,-3.68707
480.9,40.9771,0.362273,-3.711
483.2,41.2025,0.267144,-3.73577
485.5,41.4281,0.176009,-3.75137
487.8,41.6556,0.0993751,-3.77302
490.1,41.8817,0.0288188,-3.77305
492.4,42.1083,-0.0362581,-3.78463
494.7,42.3359,-0.0727335,-3.79057
497,42.563,-0.0953901,-3.79019
499.3,42.7907,-0.114756,-3.79393
501.6,43.019,-0.14362,-3.8014
503.9,43.2467,-0.151411,-3.79097
506.2,43.4743,-0.161449,-3.79508
508.5,43.703,-0.174099,-3.79909
510.8,43.9301,-0.192462,-3.8042
513.1,44.1594,-0.203169,-3.80241
515.4,44.3866,-0.213509,-3.79689
517.7,44.6148,-0.220744,-3.80097
520,44.8434,-0.221625,-3.80145
522.3,45.0707,-0.219165,-3.80698
524.6,45.2994,-0.220785,-3.80707
526.9,45.5265,-0.222508,-3.79676
529.2,45.7545,-0.22691,-3.80889
531.5,45.9826,-0.23579,-3.81572
533.8,46.2086,-0.316477,-3.79827
536.1,46.4389,-0.350805,-3.80126
538.4,46.6681,-0.373401,-3.80743
540.7,46.8966,-0.3777,-3.80759
543,47.1264,-0.322527,-3.80518
545.3,47.3561,-0.257945,-3.80676
547.6,47.5839,-0.279096,-3.81634
549.9,47.8145,-0.278592,-3.8043
552.2,48.0428,-0.284001,-3.80458
554.5,48.2722,-0.276852,-3.80366
556.8,48.502,-0.363851,-3.81106
559.1,48.731,-0.381245,-3.80659
561.4,48.9599,-0.371176,-3.81034
563.7,49.1884,-0.36992,-3.80737
566,49.4177,-0.327914,-3.80873
568.3,49.6465,-0.278216,-3.80452
570.6,49.8752,-0.26959,-3.80714
572.9,50.1045,-0.259906,-3.80935
575.2,50.3346,-0.256701,-3.81049
577.5,50.5663,-0.264009,-3.81663
579.8,50.7955,-0.273487,-3.80655
582.1,51.0259,-0.384912,-3.81298
584.4,51.2526,-0.408895,-3.80383
586.7,51.4863,-0.299977,-3.80883
589,51.7155,-0.270415,-3.81154
591.3,51.9446,-0.402867,-3.81351
593.6,52.175,-0.415779,-3.80901
595.9,52.4062,-0.30586,-3.81164
598.2,52.6371,-0.305301,-3.81845
600.5,52.8675,-0.308848,-3.80936
602.8,53.0972,-0.318442,-3.81452
605.1,53.3279,-0.311499,-3.81077
607.4,53.5597,-0.200461,-3.81363
609.7,53.7873,-0.314845,-3.80767
612,54.02,-0.237649,-3.81638
614.3,54.2522,-0.332274,-3.81193
616.6,54.4817,-0.369874,-3.81511
618.9,54.7124,-0.506107,-3.81709
621.2,54.9449,-0.328683,-3.80938
623.5,55.1758,-0.471626,-3.81858
625.8,55.4063,-0.39582,-3.8099
628.1,55.6371,-0.39997,-3.8149
630.4,55.8679,-0.463731,-3.81332
632.7,56.1011,-0.432061,-3.81527
635,56.332,-0.53313,-3.81565
637.3,56.5637,-0.553296,-3.81548
639.6,56.7961,-0.448712,-3.81594
641.9,57.0276,-0.442826,-3.81691
644.2,57.2593,-0.568141,-3.8211
646.5,57.4897,-0.588285,-3.81458
648.8,57.7212,-0.607288,-3.81204
651.1,57.9519,-0.645928,-3.81979
653.4,58.183,-0.54083,-3.8198
655.7,58.4118,-0.613782,-3.82396
658,58.6448,-0.632164,-3.81277
660.3,58.8767,-0.51566,-3.81725
662.6,59.1066,-0.622348,-3.82183
664.9,59.3379,-0.646425,-3.81975
667.2,59.5697,-0.6576,-3.81847
669.5,59.7999,-0.660455,-3.81733
671.8,60.0329,-0.665203,-3.82066
674.1,60.2639,-0.659006,-3.8204
676.4,60.4957,-0.650317,-3.8202
678.7,60.7295,-0.534622,-3.81849
681,60.9612,-0.5694,-3.81664
683.3,61.1939,-0.55897,-3.82252
685.6,61.429,-0.56896,-3.8267
687.9,61.6604,-0.595206,-3.82096
690.2,61.8928,-0.579285,-3.82367
692.5,62.1243,-0.583325,-3.81572
694.8,62.356,-0.591715,-3.82218
697.1,62.5876,-0.573029,-3.82629
699.4,62.8186,-0.612722,-3.82003
701.7,63.0507,-0.630689,-3.81858
704,63.2826,-0.613024,-3.82538
706.3,63.5153,-0.574691,-3.82911
708.6,63.7466,-0.569582,-3.82058
710.9,63.9782,-0.542093,-3.8191
713.2,64.2088,-0.537008,-3.82078
715.5,64.4407,-0.524334,-3.82417
717.8,64.6731,-0.560482,-3.82645
720.1,64.9045,-0.578464,-3.82164
722.4,65.1374,-0.562131,-3.82564
724.7,65.3697,-0.572971,-3.82527
727,65.6008,-0.580956,-3.82264
729.3,65.8341,-0.597612,-3.82523
731.6,66.0657,-0.532087,-3.82791
733.9,66.2971,-0.554732,-3.82221
736.2,66.5284,-0.623327,-3.81693
738.5,66.7612,-0.600741,-3.82832
740,66.913,-0.588328,-3.83262

File: Helmet_Buckle_STA_N2_10KData_250307_R4.csv
Temp./C,Time/min,DSC/(mW/mg),Mass loss/mg
60.0,0.0,0.867177,-0.0178519
62.3,0.294015,0.955819,-0.0183013
64.6,0.578512,1.01577,-0.0190859
66.9,0.854915,1.05465,-0.0191864
69.2,1.1225,1.04867,-0.0190129
71.5,1.38563,1.01971,-0.0180637
73.8,1.64199,0.986243,-0.0189872
76.1,1.89806,0.983345,-0.0190343
78.4,2.14687,1.00321,-0.0205411
80.7,2.3948,1.03434,-0.0192533
83,2.63659,1.06572,-0.0191942
85.3,2.87913,1.08873,-0.0192039
87.6,3.11796,1.11961,-0.019219
89.9,3.35301,1.1586,-0.0218377
92.2,3.58574,1.17627,-0.0218939
94.5,3.81767,1.20743,-0.0205286
96.8,4.04881,1.22509,-0.0212262
99.1,4.2775,1.25772,-0.0218493
101.4,4.50495,1.28728,-0.020529
103.7,4.7329,1.30096,-0.0192048
106,4.95802,1.32688,-0.0218647
108.3,5.18317,1.34059,-0.0205201
110.6,5.40819,1.35734,-0.0192101
112.9,5.63191,1.37071,-0.0188593
115.2,5.8563,1.38956,-0.0192669
117.5,6.07899,1.40702,-0.021844
119.8,6.30346,1.42463,-0.019218
122.1,6.526,1.43392,-0.019156
124.4,6.74675,1.45527,-0.0192418
126.7,6.96927,1.46666,-0.0205454
129,7.19084,1.47072,-0.0231479
131.3,7.41231,1.48696,-0.0205437
133.6,7.63089,1.49723,-0.0192106
135.9,7.85204,1.50986,-0.01855
138.2,8.07292,1.52524,-0.0198699
140.5,8.29073,1.53876,-0.01723
142.8,8.51048,1.54882,-0.0185506
145.1,8.7269,1.5707,-0.0211961
147.4,8.94765,1.57771,-0.0198671
149.7,9.16648,1.58478,-0.0186289
152,9.38313,1.59809,-0.0184919
154.3,9.60135,1.61899,-0.0209438
156.6,9.81928,1.61812,-0.0195403
158.9,10.0355,1.62335,-0.0185454
161.2,10.2538,1.6289,-0.0189438
163.5,10.4714,1.64966,-0.0201901
165.8,10.6897,1.64824,-0.0221703
168.1,10.9066,1.66501,-0.0198698
170.4,11.1245,1.67107,-0.01822
172.7,11.3411,1.67577,-0.01822
175,11.5566,1.68508,-0.0208749
177.3,11.7757,1.68189,-0.019852
179.6,11.9938,1.68918,-0.0211887
181.9,12.211,1.69474,-0.0225101
184.2,12.4273,1.70265,-0.0225218
186.5,12.6452,1.70668,-0.0198828
188.8,12.8614,1.70809,-0.0211793
191.1,13.079,1.71591,-0.0205297
193.4,13.2958,1.7287,-0.0208447
195.7,13.5124,1.72882,-0.02053
198,13.7308,1.74398,-0.0178899
200.3,13.9483,1.75155,-0.0204944
202.6,14.1655,1.75487,-0.0202643
204.9,14.3816,1.76969,-0.0202003
207.2,14.5996,1.77709,-0.02152
209.5,14.8176,1.7879,-0.0215209
211.8,15.0323,1.79958,-0.0201878
214.1,15.2521,1.80963,-0.0210427
216.4,15.4685,1.82416,-0.02283
218.7,15.6867,1.83486,-0.0218483
221,15.9036,1.86002,-0.0215103
223.3,16.1209,1.87182,-0.0228317
225.6,16.3385,1.88871,-0.0195378
227.9,16.5559,1.90311,-0.02085
230.2,16.7744,1.92259,-0.0215099
232.5,16.9928,1.94225,-0.0221871
234.8,17.2106,1.96969,-0.0236316
237.1,17.4287,1.99237,-0.0218381
239.4,17.6472,2.02819,-0.0215098
241.7,17.8654,2.06541,-0.0215101
244,18.0838,2.14868,-0.0217341
246.3,18.3026,2.27331,-0.02414
248.6,18.5221,2.4816,-0.0215115
250.9,18.7477,2.91903,-0.0188748
253.2,18.9755,3.79902,-0.0188859
255.5,19.204,4.60475,-0.02151
257.8,19.4307,5.2019,-0.01888
260.1,19.6583,5.87703,-0.0220716
262.4,19.8774,5.88013,-0.02338
264.7,20.0684,3.30243,-0.0220574
267,20.2746,2.23479,-0.0227899
269.3,20.4887,1.94063,-0.02217
271.6,20.7052,1.86186,-0.02206
273.9,20.9209,1.83086,-0.02075
276.2,21.1409,1.82175,-0.0213944
278.5,21.3603,1.82332,-0.0200897
280.8,21.5787,1.82441,-0.02009
283.1,21.7972,1.81475,-0.02075
285.4,22.0169,1.81821,-0.01943
287.7,22.236,1.80542,-0.0219994
290,22.4554,1.80786,-0.022861
292.3,22.6747,1.80008,-0.0207512
294.6,22.8937,1.81084,-0.0193958
296.9,23.1122,1.81116,-0.02075
299.2,23.3335,1.81216,-0.0204227
301.5,23.5548,1.80152,-0.01877
303.8,23.7741,1.79894,-0.0240214
306.1,23.9943,1.80626,-0.0216645
308.4,24.2151,1.81268,-0.0235469
310.7,24.4365,1.80597,-0.0273299
313,24.656,1.80586,-0.0259989
315.3,24.8768,1.80431,-0.0261295
317.6,25.0971,1.80264,-0.0277686
319.9,25.3179,1.80624,-0.02777
322.2,25.54,1.81463,-0.029419
324.5,25.76,1.8165,-0.027778
326.8,25.9815,1.82018,-0.0290636
329.1,26.203,1.82217,-0.0304021
331.4,26.4255,1.83362,-0.0312455
333.7,26.6462,1.86263,-0.0353365
336,26.8682,1.85777,-0.0317249
338.3,27.0882,1.87153,-0.0328754
340.6,27.3118,1.88242,-0.03897
342.9,27.5352,1.90575,-0.0416491
345.2,27.7567,1.92831,-0.0428545
347.5,27.9791,1.95584,-0.0424934
349.8,28.2021,1.97674,-0.0478635
352.1,28.425,2.02306,-0.0518244
354.4,28.648,2.07418,-0.0531191
356.7,28.8707,2.14485,-0.0571662
359,29.0953,2.23841,-0.0611308
361.3,29.3193,2.32446,-0.0695401
363.6,29.5434,2.38362,-0.0732838
365.9,29.7668,2.43533,-0.0806726
368.2,29.9902,2.46984,-0.0927227
370.5,30.2147,2.49633,-0.0999079
372.8,30.4382,2.54554,-0.107294
375.1,30.6614,2.60195,-0.119763
377.4,30.8861,2.68003,-0.133139
379.7,31.1108,2.72175,-0.14761
382,31.3342,2.80032,-0.162667
384.3,31.5604,2.89491,-0.188411
386.6,31.7853,2.99459,-0.208912
388.9,32.0106,3.13798,-0.233779
391.2,32.2359,3.27013,-0.269681
393.5,32.4625,3.42112,-0.299636
395.8,32.6889,3.58006,-0.337607
398.1,32.9151,3.71226,-0.379598
400.4,33.1411,3.85078,-0.429538
402.7,33.3677,3.99615,-0.478506
405,33.5945,4.14055,-0.532179
407.3,33.8199,4.28983,-0.590054
409.6,34.0462,4.43519,-0.658658
411.9,34.2725,4.56987,-0.729022
414.2,34.4991,4.72955,-0.804846
416.5,34.7259,4.81899,-0.886565
418.8,34.9513,4.91931,-0.975198
421.1,35.1787,5.03331,-1.06814
423.4,35.405,5.14542,-1.17045
425.7,35.6311,5.2515,-1.28195
428,35.8545,5.32568,-1.3969
430.3,36.0845,5.37555,-1.51896
432.6,36.3091,5.38399,-1.64758
434.9,36.5329,5.34047,-1.7828
437.2,36.7592,5.2314,-1.92707
439.5,36.9837,5.06742,-2.06419
441.8,37.2067,4.87001,-2.20686
444.1,37.4291,4.61915,-2.34639
446.4,37.6515,4.34415,-2.48423
448.7,37.8725,4.01558,-2.6198
451,38.0942,3.65946,-2.74528
453.3,38.3145,3.27402,-2.86905
455.6,38.5369,2.89722,-2.98115
457.9,38.7576,2.5107,-3.09033
460.2,38.9801,2.13638,-3.1869
462.5,39.2019,1.806,-3.27902
464.8,39.4239,1.49442,-3.35848
467.1,39.6479,1.20876,-3.43303
469.4,39.8712,0.956965,-3.49781
471.7,40.0957,0.741446,-3.55597
474,40.3191,0.542751,-3.60729
476.3,40.5436,0.383469,-3.64814
478.6,40.7686,0.242271,-3.68358
480.9,40.9951,0.131102,-3.71159
483.2,41.2197,0.0419841,-3.73221
485.5,41.4468,-0.0500498,-3.75033
487.8,41.6732,-0.111297,-3.76557
490.1,41.9012,-0.177881,-3.77754
492.4,42.128,-0.223301,-3.78013
494.7,42.3544,-0.260569,-3.78832
497,42.5838,-0.277739,-3.78829
499.3,42.8107,-0.294681,-3.79091
501.6,43.0389,-0.32173,-3.78565
503.9,43.2666,-0.322211,-3.7894
506.2,43.4957,-0.338196,-3.79442
508.5,43.7246,-0.343815,-3.79438
510.8,43.9528,-0.357497,-3.79343
513.1,44.1818,-0.353426,-3.79735
515.4,44.4097,-0.359622,-3.79247
517.7,44.6398,-0.364726,-3.79331
520,44.869,-0.35401,-3.79167
522.3,45.0977,-0.351019,-3.79234
524.6,45.3262,-0.352821,-3.78969
526.9,45.5558,-0.344405,-3.79464
529.2,45.7841,-0.346057,-3.79398
531.5,46.0144,-0.350134,-3.79431
533.8,46.2417,-0.35719,-3.7943
536.1,46.4726,-0.344115,-3.79562
538.4,46.7028,-0.348721,-3.7943
540.7,46.9322,-0.349259,-3.79331
543,47.1622,-0.353488,-3.79233
545.3,47.3915,-0.349471,-3.79141
547.6,47.6214,-0.358174,-3.79424
549.9,47.85,-0.3567,-3.79462
552.2,48.0796,-0.362056,-3.79431
554.5,48.3102,-0.371815,-3.79431
556.8,48.5386,-0.368896,-3.79496
559.1,48.7682,-0.370881,-3.79496
561.4,48.9977,-0.378946,-3.79462
563.7,49.2261,-0.390332,-3.79595
566,49.4537,-0.396333,-3.79595
568.3,49.6848,-0.394285,-3.79763
570.6,49.9148,-0.397514,-3.79726
572.9,50.1439,-0.39229,-3.79693
575.2,50.3744,-0.383866,-3.79694
577.5,50.6037,-0.390562,-3.79596
579.8,50.834,-0.400312,-3.79496
582.1,51.0644,-0.413549,-3.79629
584.4,51.2936,-0.419079,-3.79892
586.7,51.5227,-0.427495,-3.79628
589,51.752,-0.435291,-3.79529
591.3,51.9824,-0.452166,-3.80009
593.6,52.2113,-0.470256,-3.79771
595.9,52.4431,-0.460131,-3.79771
598.2,52.673,-0.475048,-3.79773
600.5,52.9045,-0.484577,-3.79639
602.8,53.1356,-0.494322,-3.79705
605.1,53.3653,-0.510149,-3.79893
607.4,53.5964,-0.508774,-3.80034
609.7,53.8272,-0.524398,-3.79902
612,54.0573,-0.518322,-3.79904
614.3,54.2891,-0.518808,-3.80034
616.6,54.5204,-0.522081,-3.80159
618.9,54.7504,-0.527443,-3.80349
621.2,54.9814,-0.531336,-3.79904
623.5,55.2132,-0.524582,-3.80112
625.8,55.4433,-0.541896,-3.80309
628.1,55.675,-0.533521,-3.80028
630.4,55.9046,-0.539172,-3.79871
632.7,56.1378,-0.52867,-3.80092
635,56.3692,-0.535008,-3.80024
637.3,56.6017,-0.537101,-3.80155
639.6,56.8325,-0.537062,-3.80286
641.9,57.0652,-0.53653,-3.80419
644.2,57.2975,-0.534225,-3.80141
646.5,57.5285,-0.518546,-3.80276
648.8,57.7617,-0.519377,-3.8026
651.1,57.9936,-0.521697,-3.80276
653.4,58.2243,-0.512616,-3.80216
655.7,58.4565,-0.510626,-3.8021
658,58.6883,-0.516032,-3.8054
660.3,58.9192,-0.521429,-3.8041
662.6,59.1511,-0.521542,-3.80405
664.9,59.3823,-0.52668,-3.80408
667.2,59.6149,-0.530303,-3.80539
669.5,59.847,-0.511604,-3.80597
671.8,60.0789,-0.519996,-3.8077
674.1,60.3107,-0.522825,-3.80704
676.4,60.5426,-0.534044,-3.80709
678.7,60.7733,-0.53849,-3.80572
681,61.0056,-0.548219,-3.80707
683.3,61.2365,-0.552247,-3.80607
685.6,61.4663,-0.539886,-3.80835
687.9,61.7011,-0.534591,-3.80859
690.2,61.9327,-0.537057,-3.80902
692.5,62.1648,-0.532004,-3.80491
694.8,62.3976,-0.535943,-3.80765
697.1,62.6301,-0.538083,-3.81102
699.4,62.8628,-0.530088,-3.81143
701.7,63.0957,-0.525409,-3.80847
704,63.3287,-0.535845,-3.80882
706.3,63.5611,-0.510067,-3.80748
708.6,63.7954,-0.512781,-3.8088
710.9,64.0267,-0.509831,-3.81012
713.2,64.2586,-0.530688,-3.80879
715.5,64.4882,-0.537478,-3.80913
717.8,64.7228,-0.533259,-3.8077
720.1,64.9552,-0.53972,-3.80794
722.4,65.1881,-0.544583,-3.80792
724.7,65.4206,-0.546557,-3.80794
727,65.653,-0.55297,-3.80765
729.3,65.8863,-0.550645,-3.80797
731.6,66.1195,-0.571587,-3.80834
733.9,66.352,-0.562562,-3.80957
736.2,66.5857,-0.565855,-3.8122
738.5,66.8171,-0.57313,-3.81222
740,66.9682,-0.571398,-3.81085