Folder: fsri_materials_database/01_Data/Helmet_Buckle/STA/N2/10K_min (part 3)

File: Helmet_Buckle_STA_N2_10KData_250529_R5.csv
Temp./C,Time/min,DSC/(mW/mg),Mass loss/mg
40.0,0.0,0.803316,-0.0565488
42.2,0.295391,0.892462,-0.0566093
44.4,0.577182,0.971706,-0.0588041
46.6,0.850509,1.03707,-0.0604956
48.8,1.11863,1.09294,-0.0611759
51,1.37634,1.14944,-0.0632215
53.2,1.62949,1.19232,-0.0658438
55.4,1.87752,1.23995,-0.0671695
57.6,2.11693,1.28039,-0.0658442
59.8,2.36223,1.31592,-0.0685749
62,2.59601,1.34062,-0.0711893
64.2,2.82905,1.34931,-0.0732936
66.4,3.05973,1.3666,-0.0687342
68.6,3.2876,1.37474,-0.0742566
70.8,3.51343,1.37329,-0.0747828
73,3.73845,1.36961,-0.0772904
75.2,3.9616,1.36925,-0.0782811
77.4,4.18484,1.35939,-0.0792022
79.6,4.40698,1.36539,-0.0783049
81.8,4.62798,1.3728,-0.0799308
84,4.84703,1.36659,-0.0818069
86.2,5.0667,1.38063,-0.0802498
88.4,5.28346,1.39133,-0.0815827
90.6,5.50023,1.40811,-0.0816237
92.8,5.71581,1.42984,-0.081629
95,5.93055,1.45382,-0.081358
97.2,6.14358,1.45278,-0.0826693
99.4,6.35718,1.45169,-0.082953
101.6,6.57014,1.4394,-0.0828901
103.8,6.78152,1.42343,-0.0829025
106,6.99213,1.41522,-0.0828869
108.2,7.20577,1.40362,-0.082885
110.4,7.41487,1.40929,-0.0836488
112.6,7.62719,1.40811,-0.0828917
114.8,7.8383,1.42228,-0.0842099
117,8.04783,1.43577,-0.08358
119.2,8.25954,1.45261,-0.08421
121.4,8.46896,1.46437,-0.0845987
123.6,8.68118,1.47187,-0.0842696
125.8,8.89071,1.48624,-0.0841995
128,9.10023,1.49135,-0.0838947
130.2,9.30845,1.50213,-0.0855304
132.4,9.51816,1.50849,-0.0842025
134.6,9.72721,1.52757,-0.0776385
136.8,9.93621,1.53707,-0.0858192
139,10.1455,1.54375,-0.0879964
141.2,10.354,1.5503,-0.0868383
143.4,10.5633,1.57264,-0.0842101
145.6,10.7702,1.58437,-0.0855081
147.8,10.9789,1.59537,-0.085526
150,11.1863,1.60874,-0.0867509
152.2,11.3931,1.62274,-0.0865144
154.4,11.6001,1.63431,-0.0865184
156.6,11.8084,1.63726,-0.0852004
158.8,12.0145,1.64548,-0.0865098
161,12.2208,1.66345,-0.0858956
163.2,12.4292,1.66383,-0.0800418
165.4,12.6374,1.67195,-0.0840702
167.6,12.8442,1.68257,-0.0920798
169.8,13.0504,1.69133,-0.0893699
172,13.2577,1.7022,-0.0875257
174.2,13.4648,1.70039,-0.0880976
176.4,13.6717,1.70877,-0.08674
178.6,13.8769,1.71821,-0.0854192
180.8,14.0869,1.72174,-0.0857398
183,14.2921,1.72927,-0.0867731
185.2,14.501,1.73349,-0.0864055
187.4,14.7074,1.74558,-0.0892816
189.6,14.9149,1.76301,-0.0867812
191.8,15.1213,1.77362,-0.0850984
194,15.3264,1.7817,-0.0863993
196.2,15.5335,1.7818,-0.08772
198.4,15.7411,1.78967,-0.0870601
200.6,15.9476,1.79029,-0.0877187
202.8,16.1545,1.80869,-0.0873907
205,16.3606,1.81563,-0.087765
207.2,16.5668,1.8146,-0.0880494
209.4,16.7746,1.83609,-0.0877174
211.6,16.9807,1.84503,-0.0885873
213.8,17.1882,1.86092,-0.0877213
216,17.3963,1.86409,-0.0890273
218.2,17.6026,1.87572,-0.0890427
220.4,17.8105,1.8899,-0.08772
222.6,18.0174,1.91271,-0.08903
224.8,18.2253,1.93092,-0.0900247
227,18.4332,1.94713,-0.0903411
229.2,18.6381,1.9667,-0.0887101
231.4,18.8485,1.99943,-0.09003
233.6,19.0567,2.02223,-0.0890398
235.8,19.264,2.03764,-0.0916796
238,19.4709,2.07204,-0.08904
240.2,19.6794,2.10389,-0.08904
242.4,19.8861,2.15593,-0.0916778
244.6,20.0957,2.22556,-0.0845602
246.8,20.3048,2.34324,-0.091335
249,20.5131,2.55476,-0.0900499
251.2,20.7288,3.03453,-0.0913445
253.4,20.9469,3.84856,-0.0906892
255.6,21.1623,4.50538,-0.09134
257.8,21.3774,5.06647,-0.0903506
260,21.5966,5.78545,-0.0906801
262.2,21.8104,6.17116,-0.090076
264.4,21.9925,3.88027,-0.0923742
266.6,22.1851,2.51449,-0.0923279
268.8,22.3868,2.10568,-0.091352
271,22.5933,1.97973,-0.09167
273.2,22.7994,1.93765,-0.09299
275.4,23.0062,1.93,-0.0933198
277.6,23.2151,1.93111,-0.09234
279.8,23.4237,1.93305,-0.0949592
282,23.632,1.93343,-0.09234
284.2,23.8417,1.9306,-0.09398
286.4,24.0508,1.93328,-0.0952999
288.6,24.2595,1.93344,-0.0962789
290.8,24.4684,1.92922,-0.0951956
293,24.677,1.93592,-0.096298
295.2,24.8885,1.93412,-0.0962899
297.4,25.0967,1.93307,-0.095631
299.6,25.3061,1.94146,-0.0971385
301.8,25.5147,1.93887,-0.0968301
304,25.7252,1.94352,-0.0987975
306.2,25.9345,1.9444,-0.09815
308.4,26.142,1.94301,-0.0981467
310.6,26.3548,1.94104,-0.09914
312.8,26.5642,1.95321,-0.100936
315,26.7738,1.96003,-0.10045
317.2,26.9843,1.96566,-0.101815
319.4,27.194,1.96884,-0.101437
321.6,27.4044,1.97723,-0.10276
323.8,27.6151,1.97918,-0.103036
326,27.8231,1.97992,-0.1044
328.2,28.0364,1.9969,-0.1044
330.4,28.2469,1.9984,-0.107464
332.6,28.4582,2.0172,-0.107479
334.8,28.6684,2.01785,-0.10979
337,28.8793,2.04173,-0.1111
339.2,29.0917,2.05213,-0.113739
341.4,29.3028,2.07929,-0.115059
343.6,29.515,2.09803,-0.1167
345.8,29.7266,2.12269,-0.118276
348,29.9388,2.14673,-0.121311
350.2,30.1501,2.18983,-0.125306
352.4,30.3624,2.24523,-0.127579
354.6,30.5757,2.29876,-0.130225
356.8,30.7893,2.35449,-0.135481
359,31.0012,2.40119,-0.140851
361.2,31.2132,2.4417,-0.14483
363.4,31.4262,2.48807,-0.150485
365.6,31.6381,2.53194,-0.158154
367.8,31.8512,2.56695,-0.164923
370,32.0644,2.62382,-0.173129
372.2,32.2782,2.69309,-0.182379
374.4,32.4912,2.80585,-0.190992
376.6,32.7064,2.90458,-0.201672
378.8,32.9195,2.98667,-0.214532
381,33.1335,3.09072,-0.230577
383.2,33.3465,3.19882,-0.245882
385.4,33.5617,3.31226,-0.264128
387.6,33.7763,3.41323,-0.283564
389.8,33.9912,3.54886,-0.308259
392,34.2069,3.67228,-0.333565
394.2,34.4221,3.79998,-0.363296
396.4,34.6372,3.93498,-0.395441
398.6,34.853,4.06001,-0.430084
400.8,35.0678,4.21437,-0.469719
403,35.2822,4.3203,-0.511302
405.2,35.4988,4.4288,-0.556635
407.4,35.7131,4.53866,-0.604511
409.6,35.9286,4.64406,-0.656635
411.8,36.1432,4.74857,-0.713209
414,36.3578,4.83604,-0.774737
416.2,36.5737,4.92592,-0.83845
418.4,36.7882,5.01415,-0.907174
420.6,37.0035,5.09406,-0.978821
422.8,37.2185,5.19978,-1.05823
425,37.4356,5.27836,-1.13986
427.2,37.6511,5.36824,-1.2297
429.4,37.8684,5.44737,-1.32349
431.6,38.0843,5.52706,-1.42538
433.8,38.3005,5.59735,-1.5344
436,38.5167,5.64853,-1.64793
438.2,38.7315,5.6716,-1.76704
440.4,38.9465,5.67894,-1.89398
442.6,39.1618,5.66343,-2.02264
444.8,39.3757,5.59441,-2.15554
447,39.5903,5.46649,-2.29372
449.2,39.804,5.28186,-2.42767
451.4,40.0169,5.05419,-2.564
453.6,40.2287,4.78048,-2.69707
455.8,40.4393,4.44201,-2.82193
458,40.653,4.02818,-2.94632
460.2,40.8638,3.58435,-3.06141
462.4,41.0751,3.13384,-3.168
464.6,41.2858,2.70972,-3.26591
466.8,41.4975,2.3028,-3.35234
469,41.7081,1.93312,-3.43398
471.2,41.9199,1.63357,-3.50306
473.4,42.1338,1.37199,-3.56594
475.6,42.3462,1.14594,-3.61198
477.8,42.56,0.949997,-3.6583
480,42.7728,0.800128,-3.69387
482.2,42.9889,0.662038,-3.72472
484.4,43.2046,0.553755,-3.74967
486.6,43.4198,0.446612,-3.769
488.8,43.6363,0.381266,-3.7858
491,43.8525,0.305522,-3.79649
493.2,44.0705,0.249679,-3.80338
495.4,44.2861,0.203342,-3.80841
497.6,44.5042,0.188841,-3.81232
499.8,44.7218,0.172208,-3.81428
502,44.94,0.173122,-3.81429
504.2,45.1552,0.157488,-3.81561
506.4,45.375,0.151552,-3.81693
508.6,45.5915,0.152435,-3.81562
510.8,45.81,0.148612,-3.81593
513,46.0276,0.14261,-3.81692
515.2,46.246,0.127255,-3.81561
517.4,46.4639,0.134049,-3.81692
519.6,46.6814,0.131309,-3.81824
521.8,46.9002,0.133773,-3.81673
524,47.118,0.131911,-3.81867
526.2,47.3364,0.128297,-3.81868
528.4,47.5547,0.121488,-3.8167
530.6,47.772,0.131707,-3.81922
532.8,47.991,0.131787,-3.82066
535,48.2088,0.125053,-3.81933
537.2,48.4277,0.124045,-3.82066
539.4,48.6454,0.12456,-3.82132
541.6,48.8623,0.116192,-3.82001
543.8,49.0817,0.119151,-3.82296
546,49.2975,0.125537,-3.81748
548.2,49.5191,0.121516,-3.82374
550.4,49.7376,0.112112,-3.82475
552.6,49.9565,0.115555,-3.82363
554.8,50.1763,0.110317,-3.82231
557,50.3948,0.103985,-3.82297
559.2,50.6146,0.112816,-3.82364
561.4,50.834,0.107455,-3.82362
563.6,51.0524,0.102582,-3.82494
565.8,51.272,0.10043,-3.82421
568,51.4917,0.097679,-3.8223
570.2,51.7102,0.0860031,-3.82362
572.4,51.9302,0.0750764,-3.82499
574.6,52.1497,0.0785584,-3.82494
576.8,52.3681,0.0686162,-3.82494
579,52.5897,0.0547749,-3.82492
581.2,52.8093,0.0537596,-3.82395
583.4,53.0287,0.0541949,-3.82494
585.6,53.2483,0.0480098,-3.82758
587.8,53.4692,0.0445647,-3.82626
590,53.6892,0.0266388,-3.82528
592.2,53.9084,0.0263554,-3.82659
594.4,54.1284,0.0188964,-3.82659
596.6,54.3492,0.0135762,-3.82626
598.8,54.568,0.0118361,-3.82692
601,54.7897,0.00548666,-3.82628
603.2,55.0094,-0.00669609,-3.82791
605.4,55.2301,-0.0147217,-3.82797
607.6,55.449,-0.0173566,-3.82758
609.8,55.6681,-0.0208677,-3.82757
612,55.8887,-0.0189031,-3.8289
614.2,56.1086,-0.0277235,-3.83021
616.4,56.3281,-0.0314185,-3.82889
618.6,56.5471,-0.0366535,-3.83153
620.8,56.768,-0.0347022,-3.82922
623,56.9891,-0.0313349,-3.82922
625.2,57.2097,-0.0265906,-3.83021
627.4,57.4301,-0.0160031,-3.82922
629.6,57.6509,-0.0147691,-3.82922
631.8,57.8711,-0.011555,-3.8302
634,58.0917,-0.00774365,-3.82989
636.2,58.3127,-0.00724578,-3.83021
638.4,58.5339,-0.00543365,-3.83158
640.6,58.7552,0.0158896,-3.83021
642.8,58.9758,0.0230587,-3.83087
645,59.1967,0.0189434,-3.83219
647.2,59.4155,0.0349539,-3.83226
649.4,59.6374,0.0541003,-3.83219
651.6,59.8596,0.056456,-3.83219
653.8,60.0816,0.0675014,-3.8322
656,60.3007,0.0840219,-3.83275
658.2,60.5238,0.0826191,-3.83424
660.4,60.744,0.0949582,-3.83284
662.6,60.9629,0.102829,-3.83318
664.8,61.1856,0.103032,-3.83317
667,61.4074,0.118604,-3.83317
669.2,61.6279,0.129484,-3.83285
671.4,61.8465,0.135218,-3.83311
673.6,62.068,0.144257,-3.83186
675.8,62.2905,0.144008,-3.83252
678,62.5105,0.150341,-3.83327
680.2,62.7316,0.160721,-3.83251
682.4,62.9534,0.159524,-3.8335
684.6,63.1739,0.169079,-3.8335
686.8,63.3967,0.178766,-3.8335
689,63.6191,0.183741,-3.83351
690,63.7199,0.189258,-3.83219