Folder: fsri_materials_database/01_Data/Helmet_Buckle/STA/N2/30K_min (part 3)

File: Helmet_Buckle_STA_N2_30KData_250530_R5.csv
Temp./C,Time/min,DSC/(mW/mg),Mass loss/mg
40.0,0.0,1.46195,-0.0214331
42.2,0.13469,1.70009,-0.0222587
44.4,0.25877,1.9273,-0.0222704
46.6,0.374985,2.12034,-0.0223396
48.8,0.485263,2.3221,-0.0239505
51,0.590655,2.48566,-0.0248965
53.2,0.692887,2.65685,-0.0265728
55.4,0.790971,2.81179,-0.0275117
57.6,0.8872,2.95527,-0.0285318
59.8,0.982096,3.08825,-0.0284167
62,1.07402,3.21427,-0.0299593
64.2,1.16477,3.32473,-0.032032
66.4,1.25281,3.43494,-0.0326218
68.6,1.3414,3.53444,-0.034973
70.8,1.42817,3.61637,-0.0352454
73,1.51418,3.68011,-0.0346034
75.2,1.59911,3.74499,-0.0350438
77.4,1.68284,3.80453,-0.0375197
79.6,1.76567,3.84696,-0.039717
81.8,1.84954,3.89351,-0.0397413
84,1.9315,3.94515,-0.0412507
86.2,2.01169,3.9842,-0.041823
88.4,2.09237,4.03147,-0.0412001
90.6,2.17139,4.07498,-0.0424633
92.8,2.25069,4.10978,-0.0426057
95,2.32881,4.14997,-0.0425872
97.2,2.40626,4.15607,-0.0424476
99.4,2.48208,4.18272,-0.0434665
101.6,2.55917,4.18565,-0.0428378
103.8,2.63562,4.1715,-0.0449588
106,2.71091,4.14745,-0.0439211
108.2,2.78649,4.13171,-0.0439009
110.4,2.86072,4.11367,-0.0445665
112.6,2.93544,4.09184,-0.04523
114.8,3.01017,4.08938,-0.0447115
117,3.08418,4.0936,-0.0453653
119.2,3.15823,4.1189,-0.045343
121.4,3.23167,4.15156,-0.0453625
123.6,3.30472,4.17442,-0.0466599
125.8,3.37786,4.21302,-0.0463544
128,3.45039,4.25723,-0.0453396
130.2,3.52206,4.30295,-0.0443144
132.4,3.5945,4.35186,-0.0440713
134.6,3.66565,4.39855,-0.0440196
136.8,3.73633,4.44876,-0.0448345
139,3.80739,4.48922,-0.045336
141.2,3.87785,4.54279,-0.0453371
143.4,3.948,4.58444,-0.04633
145.6,4.01781,4.62436,-0.0450052
147.8,4.08721,4.65611,-0.0463187
150,4.15666,4.70845,-0.04501
152.2,4.2257,4.76196,-0.04501
154.4,4.2946,4.80196,-0.0453517
156.6,4.36273,4.84449,-0.045991
158.8,4.43157,4.87686,-0.0446743
161,4.50005,4.92468,-0.0438851
163.2,4.56858,4.95133,-0.0446807
165.4,4.63671,4.98367,-0.0433706
167.6,4.70447,5.01602,-0.0456539
169.8,4.77237,5.04451,-0.0459985
172,4.84044,5.07977,-0.0446796
174.2,4.90795,5.1103,-0.04468
176.4,4.97546,5.14042,-0.0455202
178.6,5.04287,5.17877,-0.0456633
180.8,5.10992,5.21193,-0.0443476
183,5.17661,5.2346,-0.0440093
185.2,5.24332,5.27692,-0.0453381
187.4,5.31014,5.30763,-0.04534
189.6,5.37612,5.33759,-0.04534
191.8,5.44285,5.36612,-0.04534
194,5.50877,5.39603,-0.04534
196.2,5.57459,5.43971,-0.0442879
198.4,5.64035,5.47217,-0.0443607
200.6,5.70694,5.50696,-0.0456712
202.8,5.77292,5.54402,-0.0469661
205,5.83807,5.57968,-0.0444336
207.2,5.9043,5.62311,-0.0444499
209.4,5.9702,5.66711,-0.0456731
211.6,6.03572,5.70469,-0.0466601
213.8,6.10139,5.74777,-0.0466832
216,6.16728,5.79546,-0.0453401
218.2,6.23251,5.83974,-0.0453887
220.4,6.29807,5.89144,-0.04666
222.6,6.3639,5.94811,-0.0467047
224.8,6.42917,6.00175,-0.0459999
227,6.49436,6.06932,-0.046
229.2,6.55984,6.12534,-0.0460005
231.4,6.62522,6.19971,-0.0465946
233.6,6.69105,6.26972,-0.04666
235.8,6.75614,6.36504,-0.04666
238,6.82154,6.45882,-0.04666
240.2,6.88733,6.59277,-0.0466598
242.4,6.95243,6.77184,-0.0474093
244.6,7.01908,7.05128,-0.0466501
246.8,7.08568,7.48911,-0.04665
249,7.15323,8.25251,-0.0469735
251.2,7.22281,9.53842,-0.0482983
253.4,7.29327,11.131,-0.0483047
255.6,7.36439,12.7949,-0.0466575
257.8,7.43525,14.5034,-0.0479515
260,7.50642,16.1495,-0.0479668
262.2,7.5661,14.5422,-0.0469797
264.4,7.62233,11.8069,-0.0469138
266.6,7.68109,9.91026,-0.0483126
268.8,7.74149,8.61654,-0.0473195
271,7.80298,7.73409,-0.04732
273.2,7.8656,7.15152,-0.04732
275.4,7.92867,6.76462,-0.04732
277.6,7.99185,6.50106,-0.04732
279.8,8.05652,6.33936,-0.0482072
282,8.12075,6.22723,-0.0469922
284.2,8.18548,6.1465,-0.0496393
286.4,8.24991,6.10358,-0.0506872
288.6,8.31491,6.07515,-0.0460869
290.8,8.37965,6.05122,-0.0459382
293,8.44434,6.03816,-0.0473097
295.2,8.5093,6.02021,-0.0479603
297.4,8.57413,6.01912,-0.0466448
299.6,8.63941,6.01581,-0.0472677
301.8,8.70451,6.00857,-0.0473041
304,8.76924,6.0036,-0.0486329
306.2,8.83436,6.00436,-0.0499528
308.4,8.89926,5.99411,-0.0499502
310.6,8.96451,5.99554,-0.0489069
312.8,9.02957,5.99502,-0.0502802
315,9.09467,5.98853,-0.05028
317.2,9.15965,5.98707,-0.05028
319.4,9.2252,5.98823,-0.0502254
321.6,9.29044,5.98739,-0.0516832
323.8,9.3555,5.99049,-0.0515898
326,9.42115,5.98945,-0.0520569
328.2,9.48643,5.98435,-0.05225
330.4,9.55203,5.98236,-0.0522469
332.6,9.61705,5.98465,-0.0535696
334.8,9.68277,5.98795,-0.0535641
337,9.74858,5.98298,-0.0550014
339.2,9.81427,5.99084,-0.055981
341.4,9.87962,5.98839,-0.0563318
343.6,9.94558,6.00057,-0.0576156
345.8,10.0114,6.01712,-0.0576307
348,10.0776,6.03007,-0.0589555
350.2,10.1431,6.03709,-0.0600371
352.4,10.2092,6.0517,-0.060031
354.6,10.2752,6.07373,-0.0596086
356.8,10.3413,6.09212,-0.0621875
359,10.4071,6.11281,-0.06314
361.2,10.4736,6.14098,-0.0644851
363.4,10.54,6.17693,-0.0675246
365.6,10.6063,6.2197,-0.067941
367.8,10.6727,6.26036,-0.0687774
370,10.739,6.308,-0.0715821
372.2,10.8054,6.37783,-0.0729158
374.4,10.8725,6.45346,-0.0759831
376.6,10.9392,6.53471,-0.0802103
378.8,11.0062,6.64044,-0.0818306
381,11.0733,6.7481,-0.0847484
383.2,11.1403,6.88567,-0.0866796
385.4,11.2075,7.02831,-0.0926484
387.6,11.2749,7.19377,-0.0979889
389.8,11.3424,7.36947,-0.104827
392,11.4098,7.53139,-0.111108
394.2,11.4774,7.71197,-0.117939
396.4,11.5449,7.83302,-0.124089
398.6,11.6125,8.00526,-0.132702
400.8,11.6801,8.20775,-0.142356
403,11.748,8.42869,-0.154864
405.2,11.8164,8.67431,-0.166277
407.4,11.8834,8.81383,-0.178321
409.6,11.9526,9.1336,-0.193726
411.8,12.0208,9.35931,-0.216245
414,12.0894,9.63408,-0.23619
416.2,12.1579,9.93371,-0.259326
418.4,12.2267,10.2497,-0.285215
420.6,12.2953,10.5783,-0.313631
422.8,12.364,10.9211,-0.343326
425,12.4331,11.2611,-0.377609
427.2,12.5022,11.6033,-0.413834
429.4,12.5711,11.9286,-0.452528
431.6,12.6396,12.2537,-0.497683
433.8,12.7096,12.5729,-0.545464
436,12.7786,12.8706,-0.596581
438.2,12.8473,13.1133,-0.650705
440.4,12.9165,13.3313,-0.71009
442.6,12.9856,13.5589,-0.774899
444.8,13.0553,14.0844,-0.840912
447,13.1245,14.1807,-0.913406
449.2,13.1952,14.827,-0.997221
451.4,13.2648,15.0473,-1.08285
453.6,13.3343,15.5662,-1.17145
455.8,13.4037,15.5401,-1.26749
458,13.4742,16.1047,-1.37407
460.2,13.544,16.4354,-1.48781
462.4,13.6139,16.7159,-1.60665
464.6,13.6833,16.8054,-1.73425
466.8,13.7526,16.8918,-1.87035
469,13.8221,16.9582,-2.01001
471.2,13.8905,16.8827,-2.14889
473.4,13.9585,16.6844,-2.29557
475.6,14.0266,16.1299,-2.44705
477.8,14.0935,15.5631,-2.58627
480,14.1603,14.7673,-2.73068
482.2,14.2261,13.7993,-2.87159
484.4,14.2913,12.6713,-2.99872
486.6,14.3555,11.2395,-3.12563
488.8,14.4188,9.60875,-3.2381
491,14.4829,8.03863,-3.33701
493.2,14.5465,6.59287,-3.42712
495.4,14.6111,5.26334,-3.49941
497.6,14.676,4.13239,-3.56559
499.8,14.7416,3.17434,-3.61728
502,14.8073,2.41654,-3.65911
504.2,14.8752,1.8011,-3.69522
506.4,14.9429,1.33407,-3.72163
508.6,15.0108,0.974734,-3.74231
510.8,15.0792,0.700395,-3.75817
513,15.1479,0.502724,-3.77055
515.2,15.2169,0.345705,-3.77802
517.4,15.286,0.248499,-3.78307
519.6,15.3553,0.187544,-3.78619
521.8,15.4253,0.153974,-3.78913
524,15.4951,0.124027,-3.78988
526.2,15.5648,0.106909,-3.7921
528.4,15.6349,0.0951259,-3.79211
530.6,15.7048,0.0904133,-3.79343
532.8,15.7749,0.0815647,-3.79579
535,15.8451,0.0752134,-3.79574
537.2,15.9152,0.0722109,-3.79574
539.4,15.9849,0.055972,-3.79573
541.6,16.0555,0.0536085,-3.7957
543.8,16.1255,0.0454423,-3.79606
546,16.196,0.0377856,-3.79684
548.2,16.2663,0.0366508,-3.797
550.4,16.3367,0.0385484,-3.7966
552.6,16.407,0.0317391,-3.7987
554.8,16.4774,0.0176148,-3.7987
557,16.5478,0.0322678,-3.7987
559.2,16.6184,0.0131059,-3.79872
561.4,16.6889,0.016462,-3.79738
563.6,16.7596,0.0152752,-3.79784
565.8,16.8294,0.0118093,-3.7987
568,16.9011,0.00583646,-3.79903
570.2,16.9719,0.0058752,-3.79999
572.4,17.0419,0.00322677,-3.80034
574.6,17.1131,0.00479515,-3.79904
576.8,17.184,0.00479352,-3.79998
579,17.2552,0.00276331,-3.80133
581.2,17.3259,0.00436633,-3.80133
583.4,17.3969,0.00413327,-3.80133
585.6,17.4676,-0.00400048,-3.801
587.8,17.5388,-0.00397449,-3.80204
590,17.61,-0.00455732,-3.80232
592.2,17.6811,-0.00899154,-3.80232
594.4,17.7522,-0.0193074,-3.80232
596.6,17.8232,-0.019704,-3.80232
598.8,17.8946,-0.0298159,-3.79784
601,17.9656,-0.0325217,-3.80043
603.2,18.0373,-0.0375025,-3.80333
605.4,18.1088,-0.0420585,-3.80463
607.6,18.1799,-0.0464701,-3.80331
609.8,18.2513,-0.0521886,-3.80333
612,18.3227,-0.0543691,-3.80463
614.2,18.3935,-0.0624892,-3.8022
616.4,18.4659,-0.0666704,-3.80268
618.6,18.5371,-0.0713636,-3.80261
620.8,18.6089,-0.0787644,-3.80463
623,18.6808,-0.0906402,-3.80383
625.2,18.752,-0.0948395,-3.80428
627.4,18.8237,-0.093714,-3.80424
629.6,18.8958,-0.0923833,-3.80529
631.8,18.9673,-0.0975875,-3.80458
634,19.0391,-0.0980274,-3.80463
636.2,19.111,-0.110217,-3.80463
638.4,19.1827,-0.109627,-3.80571
640.6,19.2543,-0.116513,-3.80561
642.8,19.3263,-0.123079,-3.8059
645,19.3982,-0.128676,-3.80462
647.2,19.4702,-0.136522,-3.80521
649.4,19.5422,-0.135092,-3.8066
651.6,19.6139,-0.138258,-3.80792
653.8,19.686,-0.143466,-3.80792
656,19.7574,-0.144572,-3.80673
658.2,19.8299,-0.14514,-3.80792
660.4,19.9018,-0.141404,-3.80792
662.6,19.9741,-0.1502,-3.80792
664.8,20.0462,-0.15728,-3.80914
667,20.1183,-0.164593,-3.80923
669.2,20.1903,-0.157473,-3.80961
671.4,20.2624,-0.162112,-3.80924
673.6,20.3345,-0.163334,-3.80924
675.8,20.4066,-0.17229,-3.81057
678,20.4788,-0.167846,-3.80923
680.2,20.5509,-0.169007,-3.80937
682.4,20.6228,-0.17401,-3.81056
684.6,20.6955,-0.169981,-3.80957
686.8,20.7676,-0.168073,-3.81017
689,20.8403,-0.166451,-3.81088
690,20.8729,-0.157857,-3.81088