Folder: fsri_materials_database/01_Data/Helmet_Buckle/STA/N2/30K_min (part 2)

File: Helmet_Buckle_STA_N2_30KData_250307_R3.csv
Temp./C,Time/min,DSC/(mW/mg),Mass loss/mg
60.0,0.0,1.7855,-0.00342094
62.3,0.137886,2.0672,-0.00412746
64.6,0.264433,2.32431,-0.00241668
66.9,0.382633,2.56851,-0.00667253
69.2,0.494675,2.79861,-0.00603472
71.5,0.60178,2.95349,-0.00554442
73.8,0.704403,2.98455,-0.00496022
76.1,0.804224,2.98782,-0.00521038
78.4,0.900023,2.9826,-0.00400193
80.7,0.996548,3.01266,-0.000216668
83,1.09044,3.05253,-0.007398
85.3,1.18148,3.13812,-0.00522969
87.6,1.27241,3.22572,-0.00700293
89.9,1.36305,3.31957,-0.00688724
92.2,1.45077,3.40385,-0.00604758
94.5,1.53768,3.49707,-0.00578063
96.8,1.6244,3.58817,-0.00477158
99.1,1.70936,3.70464,-0.00424522
101.4,1.79406,3.77935,-0.00476325
103.7,1.8779,3.86201,-0.00633171
106,1.96106,3.95392,-0.00781426
108.3,2.04411,4.04208,-0.00780794
110.6,2.1264,4.12974,-0.00911617
112.9,2.20829,4.21703,-0.0104461
115.2,2.28928,4.28168,-0.01083
117.5,2.37055,4.36798,-0.00933476
119.8,2.45078,4.45236,-0.00668136
122.1,2.5303,4.5236,-0.00537998
124.4,2.61018,4.59698,-0.00537243
126.7,2.68881,4.65566,-0.00670793
129,2.76704,4.72883,-0.00567295
131.3,2.84547,4.788,-0.00539521
133.6,2.92283,4.85179,-0.00394899
135.9,2.99926,4.92328,-0.00391339
138.2,3.07546,4.98645,-0.00517667
140.5,3.15145,5.04311,-0.00713974
142.8,3.22728,5.10557,-0.00586432
145.1,3.30277,5.17454,-0.00583105
147.4,3.37728,5.21816,-0.00835062
149.7,3.45206,5.29743,-0.00688343
152,3.52644,5.34601,-0.00586364
154.3,3.60042,5.40512,-0.00586343
156.6,3.67374,5.46575,-0.00450021
158.9,3.74745,5.50441,-0.00580697
161.2,3.82081,5.54814,-0.00532144
163.5,3.8933,5.60707,-0.00314748
165.8,3.9657,5.65192,-0.00511663
168.1,4.03916,5.69181,-0.00640966
170.4,4.11165,5.74887,-0.00651117
172.7,4.18348,5.78627,-0.00648945
175,4.25607,5.82633,-0.00385454
177.3,4.32786,5.8888,-0.00493149
179.6,4.39946,5.92336,-0.00385005
181.9,4.4707,5.95146,-0.00385
184.2,4.54202,6.00095,-0.00385
186.5,4.61295,6.0475,-0.00386561
188.8,4.68351,6.08612,-0.00252978
191.1,4.75416,6.12282,-0.0031346
193.4,4.82437,6.17698,-0.00513482
195.7,4.89478,6.23589,-0.00520138
198,4.96478,6.27331,-0.00521324
200.3,5.03499,6.31862,-0.00655877
202.6,5.10488,6.3486,-0.00647811
204.9,5.17444,6.38796,-0.00549082
207.2,5.24466,6.42986,-0.0054887
209.5,5.31425,6.49191,-0.00617067
211.8,5.38356,6.54354,-0.0068043
214.1,5.45325,6.59453,-0.00680938
216.4,5.52276,6.65514,-0.00582249
218.7,5.59228,6.72209,-0.00811193
221,5.66169,6.77739,-0.00744632
223.3,5.73077,6.85883,-0.00616001
225.6,5.80005,6.93331,-0.00616
227.9,5.86907,7.01745,-0.0061685
230.2,5.93803,7.09579,-0.00483952
232.5,6.00774,7.18457,-0.00485308
234.8,6.07644,7.26554,-0.00746378
237.1,6.14587,7.38639,-0.0101392
239.4,6.21492,7.51474,-0.0101
241.7,6.2842,7.70738,-0.00932729
244,6.35374,7.99518,-0.00804329
246.3,6.42401,8.41337,-0.00615108
248.6,6.4952,9.125,-0.00615
250.9,6.56779,10.3887,-0.00615
253.2,6.64245,12.0868,-0.00614899
255.5,6.7173,13.9211,-0.00616411
257.8,6.7926,15.6036,-0.00746989
260.1,6.86721,17.2776,-0.0075548
262.4,6.92933,15.5474,-0.00880492
264.7,6.9891,12.7006,-0.0101795
267,7.051,10.7639,-0.0109079
269.3,7.11488,9.45734,-0.00999367
271.6,7.17993,8.61184,-0.00599035
273.9,7.24587,8.07107,-0.00351071
276.2,7.31259,7.70176,-0.00484663
278.5,7.38008,7.46171,-0.00493631
280.8,7.4469,7.36299,-0.00733803
283.1,7.51536,7.24051,-0.00636603
285.4,7.58286,7.18393,-0.00539031
287.7,7.65139,7.14155,-0.00538701
290,7.71967,7.12948,-0.00724713
292.3,7.7882,7.09489,-0.00737234
294.6,7.85653,7.10544,-0.010412
296.9,7.92424,7.08872,-0.0102948
299.2,7.99329,7.09549,-0.00746027
301.5,8.06195,7.08745,-0.00879011
303.8,8.12976,7.08453,-0.00879
306.1,8.1989,7.08707,-0.00878988
308.4,8.26728,7.08101,-0.00955009
310.7,8.33593,7.084,-0.00808722
313,8.40415,7.09695,-0.00945022
315.3,8.47313,7.09355,-0.00857905
317.6,8.54173,7.07541,-0.00848394
319.9,8.61039,7.09092,-0.00960186
322.2,8.67943,7.0686,-0.00678024
324.5,8.74771,7.05905,-0.00800114
326.8,8.81672,7.07025,-0.0093764
329.1,8.88488,7.07719,-0.00933151
331.4,8.95436,7.07032,-0.0116396
333.7,9.02325,7.0497,-0.0132942
336,9.09198,7.0489,-0.01329
338.3,9.16101,7.074,-0.013286
340.6,9.23028,7.05678,-0.0112419
342.9,9.29922,7.04619,-0.0105324
345.2,9.36844,7.05646,-0.0121283
347.5,9.4375,7.05951,-0.0121972
349.8,9.50696,7.07403,-0.0107431
352.1,9.57607,7.10668,-0.0117979
354.4,9.64549,7.11066,-0.0147042
356.7,9.71523,7.13212,-0.0161204
359,9.78476,7.15541,-0.0189855
361.3,9.85412,7.16514,-0.0217241
363.6,9.92408,7.19135,-0.0231331
365.9,9.99334,7.2273,-0.0256852
368.2,10.0631,7.26752,-0.0270105
370.5,10.1329,7.30339,-0.0283308
372.8,10.2032,7.37697,-0.0310349
375.1,10.2732,7.42319,-0.035862
377.4,10.3435,7.50497,-0.037411
379.7,10.4136,7.5933,-0.041587
382,10.4839,7.72387,-0.0439676
384.3,10.5544,7.85052,-0.0462393
386.6,10.6252,8.02933,-0.0523732
388.9,10.6957,8.261,-0.0596461
391.2,10.7667,8.48243,-0.0636413
393.5,10.8376,8.71001,-0.069212
395.8,10.9095,9.00817,-0.0772716
398.1,10.9805,9.18315,-0.0896118
400.4,11.0516,9.33845,-0.101793
402.7,11.1227,9.49911,-0.116252
405,11.1945,9.84116,-0.129684
407.3,11.2657,10.0695,-0.147753
409.6,11.3374,10.3119,-0.165513
411.9,11.409,10.6431,-0.188337
414.2,11.4813,10.9999,-0.216834
416.5,11.5531,11.3616,-0.247372
418.8,11.6253,11.607,-0.279947
421.1,11.697,11.8808,-0.314093
423.4,11.7692,12.1821,-0.351039
425.7,11.8409,12.4186,-0.386835
428,11.9133,12.7494,-0.429955
430.3,11.9856,13.087,-0.477059
432.6,12.0582,13.4151,-0.528512
434.9,12.1304,13.798,-0.585629
437.2,12.2036,14.1795,-0.647267
439.5,12.2758,14.5535,-0.711522
441.8,12.3493,15.0561,-0.784933
444.1,12.4229,15.5053,-0.868802
446.4,12.4953,15.8495,-0.956364
448.7,12.569,16.2603,-1.05341
451,12.6434,17.1872,-1.15613
453.3,12.7171,17.4347,-1.26861
455.6,12.79,17.9108,-1.38972
457.9,12.8625,18.0356,-1.51776
460.2,12.9347,18.1502,-1.65865
462.5,13.0068,18.1384,-1.80153
464.8,13.0774,17.6844,-1.94106
467.1,13.1497,17.7816,-2.09222
469.4,13.2204,17.2169,-2.25288
471.7,13.2903,16.5945,-2.40724
474,13.3604,15.8707,-2.55339
476.3,13.4293,14.9596,-2.70271
478.6,13.4978,13.8513,-2.84131
480.9,13.5657,12.573,-2.97628
483.2,13.6333,11.1358,-3.09338
485.5,13.7007,9.68161,-3.20387
487.8,13.7679,8.24715,-3.3043
490.1,13.8356,6.92322,-3.38895
492.4,13.9037,5.67396,-3.47251
494.7,13.9716,4.62272,-3.54417
497,14.0417,3.73403,-3.59991
499.3,14.1117,2.99962,-3.64466
501.6,14.182,2.39403,-3.68165
503.9,14.2531,1.91895,-3.71485
506.2,14.3242,1.53638,-3.73904
508.5,14.3955,1.23448,-3.75452
510.8,14.4671,0.995586,-3.76936
513.1,14.5395,0.822079,-3.78035
515.4,14.6119,0.684273,-3.78583
517.7,14.6846,0.605992,-3.78878
520,14.7574,0.534641,-3.79146
522.3,14.83,0.468077,-3.7928
524.6,14.9025,0.430585,-3.79563
526.9,14.9762,0.435998,-3.79658
529.2,15.049,0.413232,-3.79564
531.5,15.1226,0.415171,-3.79554
533.8,15.1959,0.390764,-3.79695
536.1,15.2695,0.366104,-3.7969
538.4,15.3427,0.372396,-3.7986
540.7,15.4162,0.341281,-3.79728
543,15.4894,0.350033,-3.79728
545.3,15.5629,0.330805,-3.79468
547.6,15.6365,0.321525,-3.79442
549.9,15.7099,0.305999,-3.79484
552.2,15.7835,0.306418,-3.79845
554.5,15.8573,0.28621,-3.80123
556.8,15.9309,0.289282,-3.80264
559.1,16.0046,0.236126,-3.80387
561.4,16.0783,0.216821,-3.80387
563.7,16.1523,0.208757,-3.80381
566,16.226,0.190194,-3.8048
568.3,16.2996,0.178749,-3.80257
570.6,16.3737,0.165345,-3.80091
572.9,16.4479,0.143018,-3.8009
575.2,16.5219,0.143975,-3.80357
577.5,16.5954,0.126545,-3.80484
579.8,16.6696,0.105051,-3.80073
582.1,16.7436,0.119372,-3.79793
584.4,16.8178,0.090075,-3.80055
586.7,16.8921,0.0971063,-3.80057
589,16.9661,0.113769,-3.80189
591.3,17.04,0.082359,-3.80058
593.6,17.1146,0.0869042,-3.79925
595.9,17.1893,0.0875879,-3.79827
598.2,17.2637,0.0757603,-3.79794
600.5,17.338,0.0787133,-3.79556
602.8,17.4119,-0.00148848,-3.7976
605.1,17.4872,0.0613654,-3.79771
607.4,17.5618,0.0496284,-3.79573
609.7,17.6365,0.0535236,-3.79565
612,17.7109,-0.007535,-3.7964
614.3,17.7858,-0.117741,-3.7987
616.6,17.8607,-0.0145938,-3.80345
618.9,17.9357,-0.000583346,-3.80219
621.2,18.0104,-0.106989,-3.80091
623.5,18.0853,-0.154139,-3.80119
625.8,18.16,-0.202822,-3.80327
628.1,18.2352,-0.214654,-3.80671
630.4,18.3103,-0.231803,-3.80549
632.7,18.385,-0.253653,-3.80398
635,18.4603,-0.266555,-3.80519
637.3,18.5354,-0.266786,-3.80393
639.6,18.6104,-0.264174,-3.80267
641.9,18.6854,-0.249158,-3.79992
644.2,18.7606,-0.271945,-3.80123
646.5,18.8357,-0.275473,-3.80283
648.8,18.9109,-0.283561,-3.80469
651.1,18.9861,-0.279504,-3.80478
653.4,19.0609,-0.33094,-3.80651
655.7,19.1362,-0.406867,-3.80782
658,19.2113,-0.418393,-3.80913
660.3,19.2866,-0.375801,-3.80913
662.6,19.3618,-0.406651,-3.80787
664.9,19.4373,-0.425234,-3.80782
667.2,19.5126,-0.404596,-3.8078
669.5,19.5878,-0.243556,-3.80783
671.8,19.6632,-0.178966,-3.8072
674.1,19.7388,-0.175242,-3.811
676.4,19.8139,-0.265865,-3.81113
678.7,19.8892,-0.188998,-3.81
681,19.9649,-0.180906,-3.80969
683.3,20.0401,-0.1874,-3.81103
685.6,20.1156,-0.193159,-3.81231
687.9,20.1911,-0.224771,-3.81016
690.2,20.2666,-0.227347,-3.80837
692.5,20.3422,-0.220885,-3.8109
694.8,20.4177,-0.24074,-3.81099
697.1,20.4935,-0.241138,-3.81143
699.4,20.5689,-0.244526,-3.81223
701.7,20.6447,-0.208075,-3.81221
704,20.7204,-0.241934,-3.81221
706.3,20.7962,-0.254571,-3.81267
708.6,20.8719,-0.267924,-3.81418
710.9,20.9475,-0.271967,-3.81518
713.2,21.0231,-0.301682,-3.81451
715.5,21.0988,-0.272689,-3.81369
717.8,21.1745,-0.257139,-3.81517
720.1,21.2504,-0.283012,-3.81504
722.4,21.3262,-0.292976,-3.81219
724.7,21.4015,-0.328308,-3.81486
727,21.4773,-0.478033,-3.81721
729.3,21.553,-0.534935,-3.81396
731.6,21.6294,-0.567937,-3.81452
733.9,21.7054,-0.56797,-3.81731
736.2,21.7814,-0.617351,-3.81986
738.5,21.8577,-0.601287,-3.81861
740,21.9095,-0.599674,-3.81825

File: Helmet_Buckle_STA_N2_30KData_250402_R4.csv
Temp./C,Time/min,DSC/(mW/mg),Mass loss/mg
35.0,0.0,1.46066,0.00159141
37.4,0.149159,1.71356,-6.99761e-06
39.8,0.28569,1.927,-0.000522628
42.2,0.412058,2.12171,-0.000480696
44.6,0.531136,2.28916,0.000166793
47,0.646369,2.4485,0.000545648
49.4,0.7558,2.59356,-0.00181301
51.8,0.863733,2.72175,-0.0015134
54.2,0.967858,2.85613,-0.000463292
56.6,1.06876,2.99299,-0.000533782
59,1.16949,3.13358,0.00129508
61.4,1.26877,3.26758,0.001546
63.8,1.36546,3.40878,-0.000426392
66.2,1.46129,3.5311,-0.000193096
68.6,1.55499,3.60446,-0.000236916
71,1.64876,3.63867,-0.00339525
73.4,1.74056,3.61275,-0.00425943
75.8,1.83095,3.54694,-0.00644045
78.2,1.92107,3.48131,-0.00626423
80.6,2.01088,3.45523,-0.00793099
83,2.09883,3.45494,-0.00794568
85.4,2.18737,3.47007,-0.00828591
87.8,2.27426,3.48268,-0.00657467
90.2,2.36025,3.50307,-0.00613606
92.6,2.44605,3.53811,-0.00781864
95,2.5308,3.58817,-0.00990193
97.4,2.6153,3.63218,-0.00855631
99.8,2.69906,3.68941,-0.00855208
102.2,2.78243,3.75333,-0.00855121
104.6,2.86534,3.81818,-0.00857131
107,2.94744,3.86558,-0.00861606
109.4,3.02958,3.94618,-0.0100506
111.8,3.11104,4.00783,-0.0099993
114.2,3.19221,4.06535,-0.00999184
116.6,3.27427,4.12389,-0.0099725
119,3.35508,4.18613,-0.00872061
121.4,3.43521,4.24105,-0.00857526
123.8,3.51538,4.29605,-0.00857597
126.2,3.59484,4.36399,-0.00866957
128.6,3.67407,4.42105,-0.00932599
131,3.75278,4.46171,-0.0102983
133.4,3.83112,4.53241,-0.0101857
135.8,3.90871,4.584,-0.00888009
138.2,3.98559,4.62344,-0.0101987
140.6,4.06254,4.67862,-0.0101869
143,4.14044,4.72795,-0.010203
145.4,4.21653,4.77222,-0.0115186
147.8,4.29273,4.81986,-0.0128176
150.2,4.36879,4.86851,-0.01283
152.6,4.44418,4.90782,-0.012831
155,4.5198,4.9656,-0.0102083
157.4,4.5951,5.0073,-0.00888976
159.8,4.67018,5.04109,-0.00880339
162.2,4.74501,5.07577,-0.0104791
164.6,4.81999,5.11145,-0.0115168
167,4.89475,5.15222,-0.0115254
169.4,4.96916,5.17738,-0.01152
171.8,5.04371,5.21094,-0.0115192
174.2,5.11778,5.24168,-0.0102057
176.6,5.19189,5.26955,-0.0102021
179,5.2656,5.3186,-0.0112029
181.4,5.33927,5.35006,-0.0123236
183.8,5.41248,5.39156,-0.0112032
186.2,5.48611,5.41799,-0.0125003
188.6,5.5591,5.45502,-0.0118708
191,5.63177,5.48701,-0.01185
193.4,5.70451,5.52161,-0.01185
195.8,5.7772,5.54328,-0.01185
198.2,5.84937,5.57699,-0.0118745
200.6,5.92188,5.61676,-0.0111901
203,5.99449,5.65251,-0.01119
205.4,6.06658,5.6925,-0.0112177
207.8,6.13857,5.7375,-0.01251
210.2,6.21099,5.7784,-0.01251
212.6,6.28209,5.8223,-0.0120544
215,6.35489,5.86966,-0.01185
217.4,6.4259,5.92739,-0.0118501
219.8,6.49877,5.98087,-0.0111801
222.2,6.57061,6.04037,-0.0122348
224.6,6.64233,6.10015,-0.0125117
227,6.71396,6.1539,-0.0111863
229.4,6.78567,6.23275,-0.0111901
231.8,6.85732,6.31975,-0.0115385
234.2,6.92916,6.40197,-0.0125062
236.6,7.00113,6.49516,-0.0138768
239,7.0726,6.62564,-0.01449
241.4,7.14436,6.80226,-0.01449
243.8,7.21695,7.0771,-0.01449
246.2,7.2898,7.52083,-0.01449
248.6,7.36331,8.24736,-0.0144901
251,7.43929,9.58531,-0.015215
253.4,7.51733,11.4159,-0.015154
255.8,7.59515,13.3157,-0.0138532
258.2,7.67278,15.1263,-0.0139687
260.6,7.74763,16.288,-0.0139008
263,7.80978,13.4256,-0.0138311
265.4,7.87294,10.8634,-0.01383
267.8,7.9379,9.19053,-0.0135079
270.2,8.00497,8.07493,-0.0134999
272.6,8.07313,7.36339,-0.0121565
275,8.14257,6.92064,-0.0135804
277.4,8.21234,6.63204,-0.0154527
279.8,8.28239,6.45666,-0.01536
282.2,8.35246,6.36272,-0.01536
284.6,8.4233,6.29262,-0.0153606
287,8.49376,6.25151,-0.0169004
289.4,8.56468,6.21398,-0.0154581
291.8,8.63564,6.19668,-0.0164671
294.2,8.7066,6.19573,-0.01646
296.6,8.77736,6.18879,-0.01646
299,8.84896,6.19389,-0.01646
301.4,8.92005,6.19761,-0.01646
303.8,8.99101,6.19058,-0.0164604
306.2,9.06221,6.18385,-0.0177686
308.6,9.13336,6.17446,-0.0178387
311,9.20436,6.17229,-0.0190635
313.4,9.27573,6.17267,-0.0174798
315.8,9.34718,6.18092,-0.0206928
318.2,9.41834,6.17338,-0.0220601
320.6,9.48984,6.16004,-0.02206
323,9.56127,6.17228,-0.0220581
325.4,9.63278,6.17476,-0.0210683
327.8,9.70426,6.17291,-0.0210719
330.2,9.77557,6.17093,-0.0236837
332.6,9.84717,6.16706,-0.0240642
335,9.91855,6.1597,-0.0236951
337.4,9.99017,6.15932,-0.0250362
339.8,10.062,6.17077,-0.0242452
342.2,10.134,6.18137,-0.0277881
344.6,10.2057,6.18348,-0.0296672
347,10.2775,6.19881,-0.0290963
349.4,10.3495,6.20496,-0.0305104
351.8,10.4218,6.23073,-0.0318304
354.2,10.494,6.24294,-0.0318301
356.6,10.5662,6.26231,-0.0331241
359,10.6384,6.28829,-0.0344689
361.4,10.7104,6.30809,-0.0371068
363.8,10.783,6.36123,-0.0382838
366.2,10.8552,6.39548,-0.039759
368.6,10.9277,6.44274,-0.0397188
371,11.0005,6.49966,-0.0430701
373.4,11.0729,6.58649,-0.0437023
375.8,11.1459,6.65697,-0.0473372
378.2,11.219,6.76686,-0.0494218
380.6,11.2912,6.88064,-0.0539335
383,11.3651,7.04326,-0.0595851
385.4,11.4382,7.21251,-0.0633847
387.8,11.5115,7.41694,-0.0719245
390.2,11.5852,7.65779,-0.0800845
392.6,11.659,7.88912,-0.086875
395,11.7328,8.11953,-0.0957578
397.4,11.8065,8.35248,-0.105175
399.8,11.8806,8.6212,-0.115906
402.2,11.9544,8.80503,-0.127911
404.6,12.0287,8.99845,-0.141839
407,12.1023,9.16262,-0.156991
409.4,12.176,9.28571,-0.174671
411.8,12.2506,9.46207,-0.204186
414.2,12.3243,9.7328,-0.228481
416.6,12.3998,10.0924,-0.258146
419,12.4747,10.4261,-0.29076
421.4,12.5496,10.7766,-0.327292
423.8,12.6248,11.1398,-0.367019
426.2,12.7,11.4893,-0.409645
428.6,12.7751,11.8185,-0.45879
431,12.8504,12.1249,-0.51291
433.4,12.9249,12.4334,-0.569782
435.8,13.0004,12.763,-0.632095
438.2,13.0756,13.0829,-0.700491
440.6,13.1513,13.4105,-0.773208
443,13.2268,13.7783,-0.853217
445.4,13.3025,14.1466,-0.939709
447.8,13.3784,14.5563,-1.03388
450.2,13.4546,14.9639,-1.13738
452.6,13.5305,15.3678,-1.24831
455,13.6065,15.7371,-1.3698
457.4,13.6826,16.015,-1.50195
459.8,13.7576,16.1532,-1.6439
462.2,13.8332,16.1703,-1.79381
464.6,13.9078,16.0234,-1.94285
467,13.9818,15.7255,-2.09524
469.4,14.0553,15.2957,-2.24804
471.8,14.1283,14.6979,-2.4016
474.2,14.2012,13.9477,-2.55649
476.6,14.2731,13.0333,-2.70618
479,14.3443,11.9485,-2.8445
481.4,14.4153,10.7152,-2.97631
483.8,14.4862,9.4189,-3.09755
486.2,14.5566,8.14362,-3.21067
488.6,14.6273,6.85838,-3.3173
491,14.6982,5.54971,-3.41255
493.4,14.7685,4.39538,-3.4945
495.8,14.84,3.39756,-3.56111
498.2,14.9122,2.5767,-3.6176
500.6,14.9852,1.9183,-3.66577
503,15.0586,1.42264,-3.70031
505.4,15.1324,1.03141,-3.7303
507.8,15.207,0.710763,-3.75321
510.2,15.2814,0.463446,-3.77055
512.6,15.3564,0.292036,-3.78227
515,15.4313,0.153973,-3.7908
517.4,15.507,0.0563478,-3.79524
519.8,15.5825,-0.0131372,-3.80088
522.2,15.6579,-0.0739319,-3.80072
524.6,15.7338,-0.150752,-3.80212
527,15.8099,-0.153424,-3.80473
529.4,15.886,-0.145329,-3.80604
531.8,15.962,-0.135376,-3.80472
534.2,16.0385,-0.146006,-3.80604
536.6,16.1149,-0.159377,-3.80595
539,16.1915,-0.164019,-3.80803
541.4,16.2675,-0.167001,-3.80803
543.8,16.3443,-0.174098,-3.80809
546.2,16.4203,-0.179661,-3.80869
548.6,16.4964,-0.192178,-3.80973
551,16.5732,-0.193459,-3.81196
553.4,16.6505,-0.193722,-3.81193
555.8,16.7268,-0.198952,-3.81098
558.2,16.8035,-0.202222,-3.8114
560.6,16.8806,-0.19284,-3.81171
563,16.9575,-0.187737,-3.81198
565.4,17.034,-0.196669,-3.81198
567.8,17.1113,-0.201029,-3.812
570.2,17.1878,-0.213668,-3.81132
572.6,17.2651,-0.216931,-3.8133
575,17.3421,-0.21287,-3.8133
577.4,17.4193,-0.219214,-3.8133
579.8,17.4963,-0.222523,-3.8133
582.2,17.5733,-0.242195,-3.81461
584.6,17.6506,-0.25481,-3.81329
587,17.7281,-0.231259,-3.81065
589.4,17.8055,-0.236107,-3.81191
591.8,17.8828,-0.240166,-3.81523
594.2,17.9602,-0.240412,-3.81858
596.6,18.038,-0.228632,-3.81851
599,18.1154,-0.22781,-3.81725
601.4,18.1931,-0.22629,-3.81719
603.8,18.2704,-0.238631,-3.81691
606.2,18.3482,-0.246108,-3.81344
608.6,18.426,-0.234246,-3.81825
611,18.5037,-0.242545,-3.81757
613.4,18.5816,-0.250558,-3.81757
615.8,18.6597,-0.248989,-3.81625
618.2,18.7374,-0.230034,-3.8173
620.6,18.8151,-0.232852,-3.81759
623,18.8933,-0.232975,-3.81821
625.4,18.971,-0.22174,-3.81823
627.8,19.0494,-0.221074,-3.81823
630.2,19.1274,-0.203428,-3.81823
632.6,19.2053,-0.211724,-3.81756
635,19.2833,-0.21613,-3.81757
637.4,19.361,-0.221388,-3.81725
639.8,19.4393,-0.245544,-3.81726
642.2,19.5175,-0.428961,-3.81857
644.6,19.5957,-0.338007,-3.81858
647,19.6731,-0.282222,-3.81929
649.4,19.7522,-0.278936,-3.81817
651.8,19.8303,-0.264986,-3.81825
654.2,19.9088,-0.27748,-3.82087
656.6,19.9869,-0.294345,-3.81955
659,20.0651,-0.285126,-3.81955
661.4,20.1435,-0.293614,-3.81954
663.8,20.2217,-0.284714,-3.82087
666.2,20.3001,-0.290882,-3.82087
668.6,20.3785,-0.296057,-3.82087
671,20.4571,-0.305663,-3.82149
673.4,20.5353,-0.307297,-3.82087
675.8,20.6138,-0.312249,-3.81926
678.2,20.6921,-0.31152,-3.81921
680.6,20.7706,-0.316187,-3.82235
683,20.8492,-0.305707,-3.82355
685.4,20.9275,-0.30142,-3.82509
687.8,21.0063,-0.299342,-3.82591
690.2,21.0848,-0.292727,-3.82496
692.6,21.1634,-0.309085,-3.82362
695,21.2422,-0.31811,-3.82497
697.4,21.3206,-0.312912,-3.8246
699.8,21.3995,-0.312484,-3.82461
702.2,21.4784,-0.309548,-3.82559
704.6,21.557,-0.320339,-3.82658
707,21.636,-0.316921,-3.82658
709.4,21.7146,-0.324469,-3.82658
711.8,21.7936,-0.326893,-3.8273
714.2,21.8725,-0.311713,-3.82724
716.6,21.9515,-0.30581,-3.82954
719,22.0308,-0.319271,-3.82718
721.4,22.1097,-0.304995,-3.8256
723.8,22.1889,-0.299472,-3.82692
726.2,22.268,-0.290233,-3.8271
728.6,22.3468,-0.276979,-3.82691
731,22.4261,-0.277637,-3.82691
733.4,22.5054,-0.25534,-3.82691
735.8,22.5845,-0.249094,-3.82828
738.2,22.6637,-0.233205,-3.82956
740,22.7232,-0.231487,-3.82955