Folder: fsri_materials_database/01_Data/NFPA_1981-2007_SCBA_Lens/STA/N2/10K_min

File: NFPA_1981-2007_SCBA_Lens_STA_N2_10KData_240102_R1.csv
Temp./C,Time/min,DSC/(mW/mg),Mass loss/mg
60.0,0.0,0.984064,0.00765145
62.3,0.256895,1.02893,0.0035659
64.6,0.50812,1.07745,0.00356024
66.9,0.755342,1.10328,0.00385062
69.2,0.999544,1.14059,0.00328451
71.5,1.24196,1.15825,0.00461972
73.8,1.48351,1.18534,0.0046011
76.1,1.72015,1.20486,0.00593073
78.4,1.95684,1.22768,0.00601374
80.7,2.19451,1.24688,0.00728209
83,2.42548,1.26347,0.00442883
85.3,2.65779,1.29167,0.00591321
87.6,2.8888,1.31342,0.00513815
89.9,3.11844,1.33443,0.00444695
92.2,3.34553,1.35248,0.0059838
94.5,3.57197,1.37446,0.00593
96.8,3.79748,1.38246,0.00572903
99.1,4.02451,1.40045,0.00571289
101.4,4.24915,1.42099,0.00847083
103.7,4.47329,1.42902,0.00699797
106,4.69606,1.4545,0.00769
108.3,4.9195,1.47124,0.00700911
110.6,5.14217,1.49247,0.00708712
112.9,5.36698,1.51116,0.00702983
115.2,5.58849,1.52393,0.00705197
117.5,5.81002,1.53945,0.00703
119.8,6.03323,1.54942,0.00571104
122.1,6.25451,1.56325,0.00702012
124.4,6.47674,1.58242,0.00791149
126.7,6.69783,1.59901,0.00794214
129,6.91939,1.61252,0.00702113
131.3,7.14071,1.61881,0.00834558
133.6,7.3592,1.63162,0.0062082
135.9,7.58198,1.64728,0.00505
138.2,7.80239,1.68006,0.00705405
140.5,8.02276,1.69626,0.00966088
142.8,8.2407,1.73779,0.00833747
145.1,8.46474,1.79677,0.00835
147.4,8.684,1.87898,0.00835005
149.7,8.90455,1.93614,0.00834296
152,9.12358,1.93636,0.00833984
154.3,9.34152,1.92419,0.00835166
156.6,9.56145,1.9295,0.00834962
158.9,9.78058,1.93291,0.0096543
161.2,9.99982,1.93427,0.00864527
163.5,10.2172,1.951,0.00703045
165.8,10.4369,1.96487,0.00736158
168.1,10.6565,1.97321,0.0099652
170.4,10.875,1.98188,0.0103218
172.7,11.0935,1.99075,0.00899629
175,11.313,2.01157,0.0112217
177.3,11.5315,2.01309,0.00868019
179.6,11.7508,2.02244,0.00907645
181.9,11.9683,2.0311,0.00934969
184.2,12.1878,2.03378,0.00935131
186.5,12.4061,2.03827,0.00933003
188.8,12.6239,2.04768,0.0106459
191.1,12.8416,2.04682,0.0100023
193.4,13.0603,2.0503,0.0106578
195.7,13.2791,2.05301,0.00854374
198,13.4964,2.0642,0.0103299
200.3,13.7141,2.07532,0.0106497
202.6,13.9337,2.07638,0.0109834
204.9,14.1515,2.09337,0.0110899
207.2,14.3693,2.10009,0.00943188
209.5,14.5878,2.11347,0.00950759
211.8,14.8062,2.12049,0.0101718
214.1,15.0241,2.12692,0.01406
216.4,15.2424,2.13893,0.0114274
218.7,15.4609,2.13151,0.0127303
221,15.6778,2.14122,0.0101
223.3,15.8979,2.15708,0.01142
225.6,16.1134,2.15597,0.011425
227.9,16.3332,2.16002,0.0113222
230.2,16.5538,2.17029,0.0114182
232.5,16.772,2.17094,0.01142
234.8,16.9908,2.17744,0.0120799
237.1,17.2087,2.18688,0.01109
239.4,17.4274,2.18604,0.0114201
241.7,17.6458,2.2002,0.0106585
244,17.8653,2.20976,0.01109
246.3,18.0839,2.21053,0.0110119
248.6,18.3019,2.21074,0.01142
250.9,18.5199,2.2141,0.00936836
253.2,18.7387,2.2285,0.0100981
255.5,18.9545,2.22946,0.0107598
257.8,19.175,2.24161,0.01142
260.1,19.3931,2.24642,0.00944949
262.4,19.611,2.25073,0.0120644
264.7,19.8301,2.25678,0.0124769
267,20.0489,2.26199,0.01241
269.3,20.2678,2.26528,0.0124431
271.6,20.4874,2.27026,0.0117519
273.9,20.7057,2.27762,0.01142
276.2,20.9264,2.28113,0.0114333
278.5,21.1454,2.28853,0.0117393
280.8,21.365,2.29162,0.01043
283.1,21.5845,2.29695,0.011408
285.4,21.8052,2.3004,0.01109
287.7,22.0257,2.30597,0.01109
290,22.2447,2.30603,0.0110888
292.3,22.4655,2.31416,0.0120948
294.6,22.6844,2.32359,0.0116955
296.9,22.9048,2.31931,0.0133899
299.2,23.1255,2.32711,0.0106752
301.5,23.345,2.32799,0.01208
303.8,23.566,2.33351,0.0121614
306.1,23.7856,2.32604,0.0124102
308.4,24.0051,2.32222,0.0124385
310.7,24.2262,2.33164,0.0133721
313,24.4477,2.33621,0.01076
315.3,24.6677,2.32916,0.00944098
317.6,24.8888,2.32993,0.01076
319.9,25.1108,2.33031,0.0127375
322.2,25.3319,2.34678,0.0100902
324.5,25.5533,2.34775,0.00878437
326.8,25.7745,2.34594,0.00812
329.1,25.9973,2.35843,0.00811215
331.4,26.2196,2.35348,0.00911002
333.7,26.4402,2.3561,0.00779
336,26.6619,2.35982,0.00779378
338.3,26.8836,2.36073,0.00842033
340.6,27.1057,2.35419,0.00878
342.9,27.3288,2.35682,0.00712922
345.2,27.5503,2.35383,0.00450157
347.5,27.7729,2.3641,0.00581972
349.8,27.9955,2.35451,0.00188281
352.1,28.2192,2.35212,0.00418067
354.4,28.4396,2.35256,0.00642532
356.7,28.6644,2.3502,0.00555644
359,28.8867,2.34152,0.00252187
361.3,29.1109,2.34212,0.00255756
363.6,29.3349,2.34148,0.00318048
365.9,29.5582,2.34319,0.000879835
368.2,29.7818,2.35027,0.00220613
370.5,30.0055,2.34272,0.0018616
372.8,30.2292,2.34734,-0.000759999
375.1,30.4526,2.3444,-0.00339999
377.4,30.6769,2.34931,-0.00333824
379.7,30.9015,2.34254,-0.00472543
382,31.1238,2.33484,-0.00450513
384.3,31.3501,2.33072,-0.00601193
386.6,31.5749,2.32074,-0.00734844
388.9,31.7994,2.32495,-0.00867531
391.2,32.0239,2.32671,-0.00867998
393.5,32.2487,2.32431,-0.00998849
395.8,32.4736,2.33201,-0.01262
398.1,32.6975,2.31326,-0.0152584
400.4,32.9232,2.31623,-0.0191755
402.7,33.1485,2.30801,-0.0205262
405,33.3736,2.29585,-0.0211822
407.3,33.5995,2.27628,-0.0264077
409.6,33.8234,2.27712,-0.0277449
411.9,34.0511,2.25211,-0.0317169
414.2,34.2757,2.23108,-0.0353257
416.5,34.5014,2.2261,-0.042482
418.8,34.7276,2.20648,-0.0497814
421.1,34.9533,2.19107,-0.0560904
423.4,35.1791,2.16854,-0.06419
425.7,35.4053,2.14541,-0.0719012
428,35.6294,2.11453,-0.0825893
430.3,35.8549,2.09333,-0.0928581
432.6,36.0808,2.06651,-0.105966
434.9,36.3076,2.04006,-0.120707
437.2,36.533,2.03135,-0.137262
439.5,36.7603,2.03641,-0.154284
441.8,36.9871,2.02687,-0.177027
444.1,37.2119,1.9784,-0.202553
446.4,37.4385,1.98624,-0.231802
448.7,37.6651,1.96892,-0.264841
451,37.8931,1.99685,-0.303894
453.3,38.1191,2.04865,-0.348555
455.6,38.3472,2.0729,-0.405732
457.9,38.5721,2.10853,-0.467877
460.2,38.8031,2.27281,-0.543612
462.5,39.0308,2.28462,-0.627609
464.8,39.2585,2.29771,-0.720327
467.1,39.4858,2.30325,-0.82121
469.4,39.7136,2.23756,-0.922454
471.7,39.9426,2.3141,-1.03426
474,40.1699,2.33114,-1.15244
476.3,40.3986,2.39857,-1.27451
478.6,40.6274,2.37309,-1.40256
480.9,40.8552,2.35858,-1.5346
483.2,41.084,2.37244,-1.66745
485.5,41.3129,2.34678,-1.80121
487.8,41.5408,2.31919,-1.93286
490.1,41.769,2.26093,-2.05958
492.4,41.9964,2.17653,-2.18278
494.7,42.2233,2.09843,-2.29676
497,42.4517,1.99203,-2.40171
499.3,42.6783,1.86777,-2.49668
501.6,42.9046,1.77714,-2.57464
503.9,43.1335,1.66751,-2.64689
506.2,43.3608,1.58562,-2.71093
508.5,43.5883,1.51046,-2.76642
510.8,43.8156,1.44651,-2.81054
513.1,44.0451,1.39473,-2.84807
515.4,44.2722,1.35431,-2.87863
517.7,44.5015,1.31304,-2.9028
520,44.7301,1.28597,-2.92383
522.3,44.9591,1.27661,-2.94234
524.6,45.1879,1.26047,-2.95691
526.9,45.4176,1.24253,-2.96843
529.2,45.647,1.23834,-2.9799
531.5,45.8769,1.22084,-2.99101
533.8,46.1063,1.20806,-3.00163
536.1,46.3365,1.19537,-3.00747
538.4,46.5667,1.19911,-3.01647
540.7,46.7977,1.19422,-3.02468
543,47.0273,1.18655,-3.02784
545.3,47.2574,1.17364,-3.03435
547.6,47.4879,1.17863,-3.04015
549.9,47.7183,1.17724,-3.0448
552.2,47.9481,1.16976,-3.0483
554.5,48.1768,1.16129,-3.05525
556.8,48.4081,1.17039,-3.06316
559.1,48.6382,1.16016,-3.06744
561.4,48.8691,1.17193,-3.07024
563.7,49.0996,1.16699,-3.07521
566,49.331,1.17896,-3.08052
568.3,49.5615,1.18402,-3.08316
570.6,49.7925,1.18249,-3.08744
572.9,50.0231,1.18859,-3.0927
575.2,50.2552,1.20106,-3.09644
577.5,50.4866,1.20895,-3.10078
579.8,50.7183,1.22471,-3.10578
582.1,50.948,1.22806,-3.10709
584.4,51.1802,1.23458,-3.11038
586.7,51.4101,1.25275,-3.11553
589,51.643,1.25713,-3.11994
591.3,51.8751,1.2673,-3.1212
593.6,52.1069,1.27719,-3.12652
595.9,52.3384,1.27137,-3.12653
598.2,52.5704,1.28272,-3.12947
600.5,52.8029,1.29957,-3.13344
602.8,53.0345,1.30989,-3.13598
605.1,53.2679,1.3395,-3.14008
607.4,53.4999,1.36898,-3.14255
609.7,53.732,1.38893,-3.1427
612,53.9653,1.40982,-3.14932
614.3,54.1974,1.42263,-3.15189
616.6,54.4294,1.41758,-3.15187
618.9,54.6618,1.41834,-3.15334
621.2,54.8933,1.42493,-3.15616
623.5,55.1261,1.42877,-3.15781
625.8,55.3571,1.43471,-3.16047
628.1,55.5896,1.43248,-3.16155
630.4,55.8224,1.40858,-3.16831
632.7,56.0542,1.41014,-3.16572
635,56.2877,1.39836,-3.16835
637.3,56.5198,1.3915,-3.16967
639.6,56.752,1.38109,-3.17099
641.9,56.9841,1.37699,-3.1722
644.2,57.2178,1.3775,-3.17792
646.5,57.45,1.36568,-3.17837
648.8,57.6825,1.3551,-3.18077
651.1,57.9151,1.35352,-3.1815
653.4,58.149,1.36095,-3.18373
655.7,58.3817,1.35761,-3.1847
658,58.6144,1.35796,-3.18606
660.3,58.8489,1.36394,-3.18859
662.6,59.0826,1.36881,-3.18921
664.9,59.3173,1.36536,-3.19086
667.2,59.5511,1.35737,-3.1948
669.5,59.7862,1.3545,-3.19612
671.8,60.0205,1.34417,-3.19876
674.1,60.2514,1.35071,-3.19949
676.4,60.4864,1.36566,-3.19876
678.7,60.7205,1.36024,-3.20058
681,60.9537,1.37419,-3.20248
683.3,61.1881,1.38149,-3.20568
685.6,61.4219,1.38624,-3.20617
687.9,61.6557,1.37975,-3.2093
690.2,61.8899,1.36656,-3.20787
692.5,62.1256,1.36781,-3.21181
694.8,62.3579,1.37987,-3.21182
697.1,62.5938,1.38352,-3.21053
699.4,62.8303,1.38562,-3.21191
701.7,63.0654,1.37123,-3.21447
704,63.2995,1.36671,-3.2171
706.3,63.5343,1.36233,-3.21973
708.6,63.7701,1.36677,-3.22006
710.9,64.0043,1.37706,-3.22142
713.2,64.2406,1.37788,-3.21873
715.5,64.4758,1.37136,-3.22403
717.8,64.7114,1.3779,-3.22401
720.1,64.947,1.39057,-3.224
722.4,65.1839,1.39825,-3.22631
724.7,65.4197,1.39197,-3.22827
727,65.6557,1.39656,-3.22863
729.3,65.8919,1.39706,-3.23125
731.6,66.1279,1.38992,-3.23113
733.9,66.3626,1.38128,-3.23324
736.2,66.5993,1.37803,-3.23299
738.5,66.8356,1.37313,-3.23561
740,66.9899,1.37145,-3.23685

File: NFPA_1981-2007_SCBA_Lens_STA_N2_10KData_240103_R2.csv
Temp./C,Time/min,DSC/(mW/mg),Mass loss/mg
60.0,0.0,0.761111,0.000809334
62.3,0.257273,0.807455,0.00165788
64.6,0.509781,0.83507,0.00172845
66.9,0.75644,0.870975,0.00175555
69.2,0.997714,0.883289,0.00174921
71.5,1.24235,0.895078,0.00176008
73.8,1.48292,0.91181,0.00307353
76.1,1.7204,0.931931,0.00295536
78.4,1.95728,0.946707,0.00323554
80.7,2.19192,0.966423,0.00438966
83,2.42505,0.977262,0.00241293
85.3,2.65707,0.986539,0.00446583
87.6,2.88713,1.0074,0.00307001
89.9,3.11603,1.01447,0.0031624
92.2,3.34355,1.03414,0.00438137
94.5,3.57043,1.04988,0.00309158
96.8,3.7969,1.06193,0.0034463
99.1,4.02174,1.07297,0.00306365
101.4,4.24757,1.09752,0.00339464
103.7,4.47114,1.10777,0.00439008
106,4.69459,1.1143,0.00307117
108.3,4.91774,1.12103,0.00307013
110.6,5.14144,1.12697,0.00306938
112.9,5.36278,1.14833,0.00176019
115.2,5.58594,1.15311,0.00306805
117.5,5.80742,1.1671,0.00306946
119.8,6.02961,1.18498,0.00175242
122.1,6.25202,1.19382,0.0020941
124.4,6.47412,1.20972,0.00240764
126.7,6.69458,1.21191,0.000429388
129,6.91543,1.23307,0.00175648
131.3,7.13596,1.23713,0.00174984
133.6,7.35756,1.24708,0.00176027
135.9,7.57933,1.25235,0.00180209
138.2,7.79842,1.26907,0.00175257
140.5,8.01804,1.29216,0.00175003
142.8,8.23887,1.31485,0.00306722
145.1,8.45833,1.37067,0.00267102
147.4,8.67837,1.44079,0.00207996
149.7,8.89979,1.50378,0.00307
152,9.11912,1.48568,0.00351369
154.3,9.33692,1.47565,0.0030799
156.6,9.55747,1.47378,0.00307011
158.9,9.77627,1.48185,0.00439013
161.2,9.99459,1.48656,0.00255032
163.5,10.2145,1.48021,0.00438266
165.8,10.4318,1.49516,0.00439
168.1,10.6537,1.49542,0.00438989
170.4,10.871,1.50478,0.00435992
172.7,11.0898,1.50222,0.00406017
175,11.3086,1.50929,0.00453557
177.3,11.5257,1.51331,0.00340609
179.6,11.7442,1.50853,0.00297328
181.9,11.963,1.52045,0.00329386
184.2,12.1815,1.52572,0.00338571
186.5,12.3979,1.52417,0.00438955
188.8,12.6185,1.52608,0.00311995
191.1,12.8362,1.53323,0.00409188
193.4,13.0544,1.54203,0.0027407
195.7,13.2736,1.53601,0.00307016
198,13.492,1.5383,0.00304673
200.3,13.7092,1.54268,0.00407
202.6,13.9278,1.54584,0.00309151
204.9,14.1459,1.54547,0.00307
207.2,14.364,1.54472,0.00411422
209.5,14.5819,1.55235,0.00439
211.8,14.8008,1.55598,0.00407259
214.1,15.0202,1.55318,0.00275
216.4,15.2373,1.55524,0.00302883
218.7,15.4569,1.55409,0.00307015
221,15.6746,1.56436,0.00307086
223.3,15.8917,1.56539,0.00201619
225.6,16.1119,1.56077,0.00176
227.9,16.3304,1.56907,0.00439041
230.2,16.5485,1.57214,0.00307722
232.5,16.7675,1.56398,0.00242768
234.8,16.9857,1.56869,0.00108976
237.1,17.2047,1.56813,0.00339968
239.4,17.4222,1.57121,0.00208048
241.7,17.6408,1.57868,0.00242001
244,17.8591,1.56897,0.00241998
246.3,18.0769,1.57658,0.00373003
248.6,18.2954,1.56625,0.000979962
250.9,18.514,1.57032,0.00196706
253.2,18.7313,1.57033,0.00263018
255.5,18.9511,1.5732,0.00233203
257.8,19.1684,1.58189,0.00296
260.1,19.3884,1.58306,0.00198
262.4,19.6076,1.5906,0.00296486
264.7,19.8274,1.58666,0.00297056
267,20.0467,1.58799,0.00297002
269.3,20.2652,1.57981,0.00264
271.6,20.4852,1.59084,0.00297373
273.9,20.705,1.58056,0.00294842
276.2,20.9248,1.57579,0.00361022
278.5,21.1439,1.57723,0.00295182
280.8,21.3639,1.57152,0.00196997
283.1,21.5838,1.5789,0.00231015
285.4,21.8026,1.57542,0.00231
287.7,22.0224,1.58733,0.00230916
290,22.2417,1.57696,0.00229926
292.3,22.4614,1.5784,0.00293946
294.6,22.6825,1.57231,0.00198
296.9,22.9032,1.56774,0.00198
299.2,23.1226,1.5722,0.00263
301.5,23.3433,1.57537,0.00395004
303.8,23.5627,1.57258,0.00263
306.1,23.7839,1.57754,0.00263
308.4,24.0041,1.57941,0.00263
310.7,24.2244,1.57105,0.00176559
313,24.445,1.57531,0.00328998
315.3,24.6678,1.56645,0.00262992
317.6,24.8888,1.55355,0.00131
319.9,25.1096,1.55226,0.00131173
322.2,25.3319,1.55349,0.00229347
324.5,25.5531,1.54871,0.00162327
326.8,25.7746,1.54667,0.00129494
329.1,25.9971,1.53974,0.00164
331.4,26.219,1.53318,0.000330926
333.7,26.4403,1.52778,-7.91832e-11
336,26.6632,1.5293,0.00132
338.3,26.8854,1.52777,-3.79991e-10
340.6,27.1077,1.51638,-0.00131991
342.9,27.3302,1.51291,-0.000662055
345.2,27.5528,1.51403,-0.00132
347.5,27.775,1.50783,-0.00165
349.8,27.9983,1.50805,-0.00160896
352.1,28.2215,1.49987,-0.00296
354.4,28.4414,1.49874,-0.00361979
356.7,28.6679,1.49562,-0.00296
359,28.8908,1.48482,-0.00352926
361.3,29.1152,1.48376,-0.0043975
363.6,29.3361,1.47802,-0.00494
365.9,29.5617,1.4829,-0.00362021
368.2,29.7845,1.48382,-0.00628062
370.5,30.0079,1.47349,-0.00561339
372.8,30.23,1.46563,-0.00626078
375.1,30.4568,1.46548,-0.00790001
377.4,30.6808,1.45954,-0.00922
379.7,30.9042,1.4594,-0.0105399
382,31.1291,1.45314,-0.01054
384.3,31.3547,1.4449,-0.0120624
386.6,31.5783,1.4451,-0.0131509
388.9,31.8034,1.43262,-0.01449
391.2,32.0281,1.42829,-0.014491
393.5,32.2528,1.41775,-0.0158101
395.8,32.478,1.40898,-0.0171881
398.1,32.7027,1.39548,-0.0197593
400.4,32.9284,1.3883,-0.0223801
402.7,33.1542,1.3697,-0.0250292
405,33.3797,1.36011,-0.0263488
407.3,33.6041,1.33534,-0.0289808
409.6,33.8299,1.32352,-0.0316035
411.9,34.0561,1.30713,-0.036795
414.2,34.2824,1.29415,-0.0398684
416.5,34.5071,1.27191,-0.0462805
418.8,34.7326,1.24641,-0.0528183
421.1,34.9583,1.22544,-0.0584445
423.4,35.1826,1.19896,-0.0660378
425.7,35.4085,1.16724,-0.0755265
428,35.6332,1.12896,-0.0846674
430.3,35.8574,1.10188,-0.0964202
432.6,36.085,1.07072,-0.108925
434.9,36.311,1.03317,-0.122797
437.2,36.5384,1.01207,-0.138025
439.5,36.7645,0.995795,-0.156464
441.8,36.9912,0.983202,-0.176588
444.1,37.2173,0.9698,-0.202183
446.4,37.4443,0.969109,-0.230671
448.7,37.6699,0.95222,-0.264689
451,37.8997,1.00561,-0.303368
453.3,38.1262,1.06267,-0.354669
455.6,38.3543,1.12005,-0.412343
457.9,38.5825,1.10945,-0.476825
460.2,38.8097,1.15162,-0.551283
462.5,39.0374,1.17519,-0.631539
464.8,39.2674,1.2649,-0.724192
467.1,39.4936,1.18063,-0.826558
469.4,39.7216,1.19557,-0.926734
471.7,39.9492,1.23551,-1.03769
474,40.1749,1.14709,-1.15302
476.3,40.4045,1.18074,-1.27143
478.6,40.632,1.23679,-1.39244
480.9,40.8621,1.25873,-1.52412
483.2,41.0907,1.25896,-1.6582
485.5,41.3194,1.25198,-1.78986
487.8,41.5469,1.22887,-1.92109
490.1,41.7749,1.20031,-2.05101
492.4,42.0023,1.12117,-2.17396
494.7,42.2286,1.03489,-2.28902
497,42.4556,0.93041,-2.3957
499.3,42.6825,0.810978,-2.49083
501.6,42.9093,0.700517,-2.57531
503.9,43.1376,0.600665,-2.64968
506.2,43.365,0.518735,-2.71304
508.5,43.5929,0.443006,-2.76732
510.8,43.821,0.379906,-2.81403
513.1,44.0486,0.333746,-2.85302
515.4,44.2776,0.300704,-2.88464
517.7,44.5074,0.255768,-2.9088
520,44.7357,0.231534,-2.92941
522.3,44.9647,0.209384,-2.94747
524.6,45.1949,0.188639,-2.96281
526.9,45.4253,0.190294,-2.97489
529.2,45.6529,0.179451,-2.98829
531.5,45.8835,0.160836,-2.99885
533.8,46.1139,0.147747,-3.00771
536.1,46.3432,0.145224,-3.01544
538.4,46.5747,0.131789,-3.02442
540.7,46.8041,0.131382,-3.03002
543,47.0345,0.107868,-3.0366
545.3,47.2647,0.109975,-3.04365
547.6,47.4954,0.108043,-3.04813
549.9,47.7264,0.0996638,-3.05407
552.2,47.9557,0.0964029,-3.05953
554.5,48.1864,0.0885702,-3.06439
556.8,48.4157,0.086014,-3.06889
559.1,48.6473,0.0860584,-3.07412
561.4,48.8765,0.0951892,-3.07817
563.7,49.1073,0.0881143,-3.0817
566,49.34,0.0907421,-3.0881
568.3,49.5711,0.0928854,-3.09139
570.6,49.8021,0.08459,-3.09535
572.9,50.0337,0.0863723,-3.09943
575.2,50.2658,0.0718435,-3.10377
577.5,50.4982,0.072185,-3.10701
579.8,50.7306,0.0649854,-3.11092
582.1,50.9618,0.064061,-3.11489
584.4,51.1941,0.0661606,-3.11884
586.7,51.4253,0.0648631,-3.12279
589,51.6568,0.0561628,-3.12642
591.3,51.8894,0.0624892,-3.12806
593.6,52.1215,0.0497356,-3.13168
595.9,52.3538,0.0774092,-3.13571
598.2,52.5852,0.0820321,-3.13914
600.5,52.8184,0.0782558,-3.14218
602.8,53.0495,0.0664281,-3.14387
605.1,53.2819,0.063047,-3.1478
607.4,53.5135,0.069285,-3.14979
609.7,53.7442,0.0680328,-3.15261
612,53.9757,0.0718125,-3.15431
614.3,54.2073,0.080154,-3.15663
616.6,54.4408,0.0921962,-3.15715
618.9,54.6723,0.0892577,-3.16101
621.2,54.9048,0.101442,-3.16413
623.5,55.1382,0.113407,-3.16626
625.8,55.373,0.118655,-3.16889
628.1,55.606,0.117449,-3.17153
630.4,55.84,0.116226,-3.17153
632.7,56.0726,0.118823,-3.17417
635,56.307,0.123234,-3.17551
637.3,56.5385,0.106164,-3.17944
639.6,56.7729,0.112536,-3.18074
641.9,57.0048,0.110135,-3.18142
644.2,57.2377,0.09066,-3.18218
646.5,57.4694,0.0915982,-3.18471
648.8,57.7016,0.0780406,-3.18605
651.1,57.9346,0.0663961,-3.18735
653.4,58.1773,0.0596647,-3.18866
655.7,58.4103,0.0556895,-3.19096
658,58.6444,0.0421822,-3.19361
660.3,58.8771,0.031709,-3.19557
662.6,59.1111,0.0300528,-3.19618
664.9,59.345,0.018984,-3.19753
667.2,59.5786,0.0123717,-3.19978
669.5,59.8123,0.0173494,-3.20249
671.8,60.046,0.00260434,-3.20283
674.1,60.28,0.00574717,-3.20505
676.4,60.5129,0.0166523,-3.20645
678.7,60.7476,0.0269553,-3.20697
681,60.9811,0.0255831,-3.20909
683.3,61.2142,0.0348207,-3.20908
685.6,61.4479,0.0272422,-3.21166
687.9,61.6821,0.0343992,-3.21435
690.2,61.9171,0.0368532,-3.21434
692.5,62.152,0.0433275,-3.21566
694.8,62.3857,0.0480982,-3.21705
697.1,62.6206,0.0562626,-3.21853
699.4,62.8555,0.0581169,-3.21962
701.7,63.0906,0.0597233,-3.22193
704,63.3243,0.0539859,-3.22258
706.3,63.5595,0.0640613,-3.22522
708.6,63.794,0.0624237,-3.22518
710.9,64.0285,0.0816553,-3.22751
713.2,64.2638,0.096169,-3.22851
715.5,64.4977,0.10786,-3.22884
717.8,64.7352,0.115367,-3.23114
720.1,64.9711,0.116664,-3.23246
722.4,65.2076,0.112817,-3.23378
724.7,65.4431,0.122469,-3.2331
727,65.6802,0.12823,-3.23477
729.3,65.9172,0.130552,-3.23609
731.6,66.1535,0.132156,-3.23843
733.9,66.3898,0.135437,-3.23908
736.2,66.6256,0.139278,-3.24004
738.5,66.8621,0.151738,-3.23971
740,67.0159,0.150149,-3.24234