Folder: fsri_materials_database/01_Data/NFPA_1981-2007_SCBA_Lens/STA/N2/30K_min

File: NFPA_1981-2007_SCBA_Lens_STA_N2_30KData_240104_R1.csv
Temp./C,Time/min,DSC/(mW/mg),Mass loss/mg
80.177,0.0,1.91108,0.0143878
82.477,0.122885,2.13031,0.0151114
84.777,0.237383,2.31723,0.0148724
87.077,0.345359,2.48935,0.01828
89.377,0.448161,2.64784,0.018918
91.677,0.54672,2.77515,0.0187202
93.977,0.641875,2.91212,0.0199656
96.277,0.734618,3.02756,0.019998
98.577,0.825679,3.13813,0.0206115
100.877,0.913638,3.24266,0.0179989
103.177,1.00026,3.33084,0.0183969
105.477,1.08641,3.42449,0.01847
107.777,1.17141,3.51385,0.0177633
110.077,1.25533,3.60592,0.0196035
112.377,1.3383,3.6742,0.0197552
114.677,1.41896,3.75126,0.0183018
116.977,1.50144,3.81503,0.0169654
119.277,1.58245,3.89035,0.0157084
121.577,1.66212,3.95349,0.0163571
123.877,1.74164,4.02851,0.0175382
126.177,1.82096,4.09685,0.0161587
128.477,1.89936,4.1517,0.0173869
130.777,1.97747,4.21026,0.0199363
133.077,2.05456,4.27911,0.0198691
135.377,2.13148,4.34565,0.0200027
137.677,2.20816,4.41172,0.0199024
139.977,2.28426,4.48718,0.0196167
142.277,2.36023,4.57416,0.0185658
144.577,2.43506,4.68041,0.0186636
146.877,2.51147,4.84594,0.0186671
149.177,2.58693,5.08396,0.0185575
151.477,2.66147,5.23879,0.01734
153.777,2.73589,5.27245,0.0186399
156.077,2.81016,5.28969,0.01866
158.377,2.88384,5.33198,0.01866
160.677,2.95692,5.36877,0.0190549
162.977,3.03077,5.39586,0.0199796
165.277,3.10426,5.427,0.0202833
167.577,3.1775,5.46517,0.01966
169.877,3.2506,5.49163,0.0186092
172.177,3.32317,5.52584,0.0185754
174.477,3.39587,5.55658,0.0209725
176.777,3.46784,5.58269,0.0209241
179.077,3.54021,5.60565,0.0209746
181.377,3.61241,5.6433,0.0196495
183.677,3.68411,5.67057,0.01965
185.977,3.75573,5.69431,0.0196494
188.277,3.82726,5.72526,0.0183301
190.577,3.89815,5.75627,0.0194827
192.877,3.96986,5.77897,0.0196505
195.177,4.0405,5.80471,0.0198678
197.477,4.11176,5.82212,0.0209697
199.777,4.18203,5.85228,0.0216831
202.077,4.25322,5.87721,0.0209698
204.377,4.32406,5.89546,0.0212988
206.677,4.39451,5.9095,0.0209685
208.977,4.46482,5.92753,0.0209728
211.277,4.53475,5.9528,0.019649
213.577,4.60591,5.97472,0.0196487
215.877,4.67646,5.99665,0.0206401
218.177,4.74658,6.0052,0.02064
220.477,4.81689,6.02193,0.02064
222.777,4.88691,6.03369,0.0206402
225.077,4.95728,6.04516,0.0216324
227.377,5.02748,6.06088,0.0219601
229.677,5.09758,6.0674,0.02196
231.977,5.16795,6.0819,0.0215955
234.277,5.23768,6.09154,0.0206407
236.577,5.30772,6.1096,0.0199898
238.877,5.37758,6.11888,0.0196449
241.177,5.44727,6.11894,0.01933
243.477,5.51729,6.13437,0.01933
245.777,5.58698,6.12978,0.0176039
248.077,5.65678,6.14129,0.0166883
250.377,5.72701,6.14875,0.0193091
252.677,5.79613,6.14394,0.02064
254.977,5.86521,6.14189,0.0206407
257.277,5.93511,6.14715,0.0213969
259.577,6.00504,6.15731,0.0193327
261.877,6.07472,6.1584,0.01933
264.177,6.14432,6.15554,0.0199438
266.477,6.21356,6.15238,0.0212835
268.777,6.28323,6.15902,0.0219672
271.077,6.35318,6.1594,0.022635
273.377,6.42262,6.16066,0.0232757
275.677,6.4923,6.15888,0.0219665
277.977,6.56169,6.15634,0.0193412
280.277,6.63146,6.15248,0.0180115
282.577,6.70087,6.15242,0.0193662
284.877,6.7708,6.15049,0.0179441
287.177,6.84067,6.15142,0.0193304
289.477,6.91047,6.13566,0.0193419
291.777,6.98017,6.13266,0.0206388
294.077,7.04997,6.13356,0.0194365
296.377,7.11976,6.12848,0.0193299
298.677,7.18944,6.12902,0.0182162
300.977,7.25918,6.11894,0.0193361
303.277,7.32957,6.11105,0.0183299
305.577,7.39923,6.10527,0.0180103
307.877,7.46937,6.09319,0.0189889
310.177,7.53942,6.08484,0.018991
312.477,7.60939,6.07137,0.0203022
314.777,7.67893,6.06564,0.02031
317.077,7.74952,6.06204,0.0203158
319.377,7.81966,6.0456,0.0220106
321.677,7.88916,6.04191,0.0232975
323.977,7.95996,6.02711,0.0226453
326.277,8.03051,6.01835,0.0209757
328.577,8.10097,6.00982,0.0196495
330.877,8.17118,5.99773,0.0193148
333.177,8.24177,5.98447,0.0183403
335.477,8.31199,5.97124,0.0180001
337.777,8.38266,5.95448,0.0193117
340.077,8.45311,5.95018,0.0192223
342.377,8.52408,5.92424,0.0193013
344.677,8.59432,5.91816,0.01998
346.977,8.66529,5.90064,0.0186935
349.277,8.73616,5.88473,0.0189065
351.577,8.80688,5.8625,0.0199784
353.877,8.87727,5.85058,0.0186605
356.177,8.94837,5.83273,0.01866
358.477,9.01936,5.80791,0.0172561
360.777,9.09035,5.78279,0.0174704
363.077,9.16138,5.76164,0.0166367
365.377,9.23248,5.74672,0.0174459
367.677,9.30362,5.72002,0.01745
369.977,9.3747,5.69933,0.01745
372.277,9.44613,5.67755,0.0174424
374.577,9.51729,5.659,0.0189082
376.877,9.58837,5.63475,0.0202726
379.177,9.65981,5.61303,0.0227199
381.477,9.73148,5.57654,0.0200517
383.777,9.80279,5.55768,0.0173201
386.077,9.87414,5.53884,0.014612
388.377,9.94573,5.51201,0.0130881
390.677,10.0175,5.49689,0.0127179
392.977,10.089,5.48093,0.0139396
395.277,10.1607,5.48273,0.0152642
397.577,10.2327,5.46735,0.0142792
399.877,10.3045,5.46254,0.0142855
402.177,10.3763,5.45266,0.012961
404.477,10.4482,5.4312,0.0152788
406.777,10.5201,5.41939,0.0140508
409.077,10.5922,5.39419,0.0126797
411.377,10.6645,5.35789,0.00998776
413.677,10.7362,5.3275,0.00868004
415.977,10.8085,5.29147,0.00736195
418.277,10.8804,5.2508,0.00867799
420.577,10.9525,5.21765,0.00859249
422.877,11.0249,5.18254,0.00591937
425.177,11.097,5.13234,0.00457025
427.477,11.1695,5.09571,0.00234594
429.777,11.2417,5.05133,0.00135356
432.077,11.3141,5.00499,-0.00237072
434.377,11.3865,4.94613,-0.00396781
436.677,11.4587,4.90298,-0.00700537
438.977,11.5312,4.84441,-0.0135775
441.277,11.6035,4.79692,-0.0180975
443.577,11.6754,4.73427,-0.0217919
445.877,11.7486,4.65647,-0.0275861
448.177,11.8214,4.57985,-0.0348378
450.477,11.8939,4.49931,-0.0434206
452.777,11.9662,4.43761,-0.0495107
455.077,12.0394,4.35784,-0.0586279
457.377,12.1115,4.28106,-0.0676217
459.677,12.1843,4.19571,-0.080001
461.977,12.2569,4.15482,-0.0937401
464.277,12.3302,4.06153,-0.104516
466.577,12.4028,3.99574,-0.118804
468.877,12.4758,3.91865,-0.13648
471.177,12.549,3.86222,-0.156777
473.477,12.6224,3.86678,-0.183591
475.777,12.6951,3.89764,-0.214537
478.077,12.7692,3.92537,-0.246953
480.377,12.8428,3.99229,-0.286319
482.677,12.9163,4.10312,-0.332607
484.977,12.9907,4.24998,-0.388455
487.277,13.0649,4.40939,-0.455118
489.577,13.1388,4.43285,-0.5331
491.877,13.2122,4.53068,-0.616387
494.177,13.2863,4.5416,-0.708683
496.477,13.3605,4.57703,-0.807716
498.777,13.4338,4.54866,-0.915005
501.077,13.5084,4.58471,-1.03013
503.377,13.5823,4.54671,-1.15212
505.677,13.6564,4.56845,-1.27508
507.977,13.7309,4.60919,-1.40216
510.277,13.8051,4.6113,-1.5334
512.577,13.8785,4.59684,-1.66931
514.877,13.9533,4.56402,-1.81089
517.177,14.0276,4.48661,-1.95173
519.477,14.1009,4.30588,-2.09116
521.777,14.1745,4.04517,-2.22286
524.077,14.2476,3.69676,-2.3423
526.377,14.3204,3.2912,-2.45148
528.677,14.3931,2.85512,-2.54546
530.977,14.4658,2.47523,-2.62719
533.277,14.539,2.15377,-2.69873
535.577,14.6124,1.87547,-2.7533
537.877,14.6858,1.68705,-2.79891
540.177,14.7597,1.52811,-2.83529
542.477,14.8333,1.43247,-2.86497
544.777,14.9076,1.35877,-2.89283
547.077,14.9818,1.30556,-2.91205
549.377,15.0565,1.25264,-2.92731
551.677,15.1309,1.22479,-2.93867
553.977,15.2056,1.19778,-2.94906
556.277,15.2801,1.15971,-2.95811
558.577,15.3553,1.1323,-2.96681
560.877,15.4298,1.1069,-2.97652
563.177,15.5049,1.08693,-2.9854
565.477,15.5798,1.06611,-2.99433
567.777,15.655,1.04274,-3.00393
570.077,15.7302,1.03299,-3.0099
572.377,15.8054,1.01742,-3.01316
574.677,15.8806,1.00208,-3.01672
576.977,15.9553,0.991026,-3.02049
579.277,16.031,0.984787,-3.02499
581.577,16.1064,0.9715,-3.02921
583.877,16.1813,0.975206,-3.03677
586.177,16.2574,0.972436,-3.04089
588.477,16.3323,0.952153,-3.04235
590.777,16.4084,0.953806,-3.04755
593.077,16.4842,0.943403,-3.05018
595.377,16.5598,0.953261,-3.05264
597.677,16.6355,0.953329,-3.05768
599.977,16.7107,0.959548,-3.06238
602.277,16.7873,0.956978,-3.06647
604.577,16.8629,0.964969,-3.07121
606.877,16.9386,0.965846,-3.07511
609.177,17.0144,0.970763,-3.07823
611.477,17.0901,0.98016,-3.08137
613.777,17.1665,0.977492,-3.08468
616.077,17.2424,0.979092,-3.08812
618.377,17.3185,0.997085,-3.09103
620.677,17.3944,1.00779,-3.09263
622.977,17.4704,1.01352,-3.09489
625.277,17.5469,1.02762,-3.09785
627.577,17.6229,1.02455,-3.10064
629.877,17.699,1.04538,-3.10252
632.177,17.7752,1.05304,-3.10457
634.477,17.8511,1.0636,-3.10772
636.777,17.9273,1.06835,-3.11112
639.077,18.0039,1.07741,-3.11366
641.377,18.0801,1.07862,-3.11533
643.677,18.1563,1.09169,-3.11829
645.977,18.2327,1.08886,-3.11995
648.277,18.3086,1.0813,-3.12123
650.577,18.3849,1.08296,-3.12413
652.877,18.4613,1.07326,-3.12689
655.177,18.5376,1.07453,-3.1304
657.477,18.6136,1.06933,-3.1341
659.777,18.6898,1.06492,-3.13145
662.077,18.7662,1.06268,-3.13442
664.377,18.8428,1.05392,-3.13575
666.677,18.9186,1.04698,-3.1379
668.977,18.9951,1.03043,-3.13961
671.277,19.0711,1.02148,-3.13962
673.577,19.1474,1.00362,-3.14177
675.877,19.2238,0.97612,-3.14416
678.177,19.3002,0.961132,-3.14376
680.477,19.3766,0.926123,-3.14376
682.777,19.4525,0.910495,-3.14509
685.077,19.5287,0.876654,-3.1465
687.377,19.6051,0.855081,-3.14919
689.677,19.6814,0.818426,-3.15213
691.977,19.7576,0.800056,-3.1559
694.277,19.8344,0.772225,-3.15704
696.577,19.9107,0.754699,-3.1579
698.877,19.9869,0.726212,-3.15707
701.177,20.0633,0.698777,-3.15836
703.477,20.1398,0.668547,-3.15967
705.777,20.216,0.636087,-3.16324
708.077,20.2928,0.617681,-3.16386
710.377,20.3694,0.597302,-3.16684
712.677,20.4458,0.568789,-3.17226
714.977,20.5226,0.539093,-3.17347
717.277,20.5992,0.511182,-3.17154
719.577,20.6758,0.4913,-3.17054
721.877,20.7524,0.472362,-3.17147
724.177,20.8292,0.45769,-3.17172
726.477,20.9058,0.427243,-3.17105
728.777,20.9824,0.408225,-3.17319
731.077,21.0595,0.376933,-3.17356
733.377,21.1361,0.361943,-3.17462
735.677,21.2127,0.333621,-3.17791
737.977,21.2897,0.311089,-3.18011
740.077,21.3599,0.294013,-3.18141

File: NFPA_1981-2007_SCBA_Lens_STA_N2_30KData_240105_R2.csv
Temp./C,Time/min,DSC/(mW/mg),Mass loss/mg
80.938,0.0,1.42074,-0.00496508
83.238,0.124067,1.55304,-0.00129703
85.538,0.238875,1.65236,-0.00266634
87.838,0.347155,1.75591,0.000713374
90.138,0.450071,1.84596,0.0011999
92.438,0.548393,1.92183,-0.000240867
94.738,0.643846,1.99881,0.00138683
97.038,0.737386,2.05493,0.000742227
99.338,0.827617,2.12751,0.00160635
101.638,0.916966,2.18164,0.00405162
103.938,1.00417,2.22656,0.00473273
106.238,1.08973,2.28769,0.00350593
108.538,1.17518,2.32372,0.0049617
110.838,1.25829,2.36703,0.00354016
113.138,1.34155,2.41325,0.00461072
115.438,1.42361,2.43496,0.00359636
117.738,1.50472,2.4844,0.00494655
120.038,1.58635,2.50756,0.00573742
122.338,1.66637,2.55178,0.00495863
124.638,1.74565,2.58889,0.00494012
126.938,1.82437,2.61411,0.00556946
129.238,1.90228,2.64818,0.00497099
131.538,1.98107,2.67665,0.00493351
133.838,2.05841,2.71626,0.00494134
136.138,2.13563,2.75342,0.00399174
138.438,2.21221,2.78594,0.00626493
140.738,2.2883,2.84101,0.00478074
143.038,2.36421,2.90166,0.00538589
145.338,2.44013,3.00168,0.00635569
147.638,2.51566,3.17673,0.00626005
149.938,2.59113,3.3814,0.00760292
152.238,2.66587,3.45615,0.00625995
154.538,2.73996,3.46144,0.00528158
156.838,2.81373,3.47501,0.00661017
159.138,2.88757,3.47708,0.00658004
161.438,2.96136,3.49012,0.00772023
163.738,3.03376,3.50317,0.00757032
166.038,3.10786,3.52324,0.00624327
168.338,3.18149,3.52778,0.00625113
170.638,3.25454,3.5475,0.00756807
172.938,3.32742,3.55325,0.00621462
175.238,3.39964,3.56773,0.00626
177.538,3.47241,3.58783,0.00625999
179.838,3.54452,3.6011,0.0065578
182.138,3.61669,3.61225,0.00758008
184.438,3.68797,3.61773,0.00758008
186.738,3.7605,3.62742,0.00692076
189.038,3.8317,3.63377,0.00693739
191.338,3.90303,3.6528,0.00691693
193.638,3.97464,3.66711,0.00756809
195.938,4.04552,3.67208,0.00889031
198.238,4.1162,3.69018,0.00888973
200.538,4.1868,3.69504,0.00757074
202.838,4.2582,3.70088,0.00757003
205.138,4.32899,3.71775,0.0068434
207.438,4.39933,3.72518,0.00723922
209.738,4.46934,3.738,0.00756926
212.038,4.54025,3.74533,0.00764613
214.338,4.61082,3.75506,0.00625194
216.638,4.6811,3.77231,0.00756838
218.938,4.75162,3.77607,0.00756988
221.238,4.82156,3.77885,0.00658217
223.538,4.89202,3.79097,0.00658
225.838,4.96202,3.78879,0.00657215
228.138,5.03222,3.79899,0.00790032
230.438,5.10265,3.8122,0.0079
232.738,5.1721,3.81303,0.0079
235.038,5.242,3.82057,0.00789998
237.338,5.31222,3.82962,0.00754754
239.638,5.382,3.82999,0.00757
241.938,5.45188,3.83768,0.00757056
244.238,5.52141,3.8436,0.00725034
246.538,5.59131,3.83741,0.0072524
248.838,5.66096,3.84355,0.0075838
251.138,5.73084,3.85308,0.00758002
253.438,5.80031,3.85819,0.00881333
255.738,5.87038,3.85341,0.00626087
258.038,5.93947,3.86793,0.00757816
260.338,6.00978,3.86909,0.00757888
262.638,6.07931,3.87235,0.00691471
264.938,6.14886,3.87648,0.00692
267.238,6.21845,3.87576,0.00692
269.538,6.28845,3.88116,0.00692
271.838,6.35747,3.88492,0.00692
274.138,6.42761,3.88761,0.00692178
276.438,6.49733,3.89213,0.00790903
278.738,6.56715,3.88671,0.00791
281.038,6.63689,3.88518,0.00791001
283.338,6.7068,3.88449,0.007858
285.638,6.7765,3.89055,0.00659007
287.938,6.84636,3.89024,0.00789733
290.238,6.91548,3.88167,0.0065882
292.538,6.98639,3.88595,0.00658403
294.838,7.05561,3.89008,0.00659152
297.138,7.12555,3.8791,0.00790883
299.438,7.1958,3.87647,0.00660965
301.738,7.2657,3.8788,0.00659
304.038,7.3353,3.87643,0.00659
306.338,7.40567,3.87547,0.00658965
308.638,7.47549,3.86578,0.00790003
310.938,7.5454,3.87092,0.0079
313.238,7.6157,3.8641,0.00788991
315.538,7.68559,3.85799,0.00659001
317.838,7.7557,3.8619,0.00659
320.138,7.82578,3.85389,0.00658631
322.438,7.89537,3.84823,0.0079
324.738,7.96615,3.84571,0.00756896
327.038,8.03625,3.83984,0.0065427
329.338,8.10606,3.83752,0.00659
331.638,8.17687,3.82267,0.00628026
333.938,8.24754,3.82192,0.00593028
336.238,8.31782,3.81019,0.0065824
338.538,8.38832,3.79737,0.00659
340.838,8.45859,3.79391,0.00659018
343.138,8.52919,3.78219,0.00526408
345.438,8.59982,3.77203,0.00526431
347.738,8.6701,3.75871,0.00659073
350.038,8.74105,3.74679,0.00381725
352.338,8.81194,3.72829,0.00395001
354.638,8.88246,3.71397,0.00395001
356.938,8.95349,3.70982,0.00386312
359.238,9.02399,3.7022,0.00503769
361.538,9.09552,3.67814,0.00394154
363.838,9.16627,3.67732,0.00263001
366.138,9.23759,3.65309,0.00263
368.438,9.30866,3.65481,0.00263
370.738,9.37964,3.63429,0.00263328
373.038,9.45015,3.62119,0.00131707
375.338,9.52204,3.611,0.00131333
377.638,9.5935,3.60467,0.000664039
379.938,9.66478,3.5996,1.41282e-07
382.238,9.73583,3.60744,9.10372e-12
384.538,9.80749,3.62632,-2.9976e-15
386.838,9.87885,3.67332,-1.93678e-13
389.138,9.95036,3.72912,2.53453e-09
391.438,10.0221,3.76846,-0.000128486
393.738,10.0936,3.79546,-0.00264589
396.038,10.1652,3.82087,-0.00240144
398.338,10.2371,3.82429,-0.00261924
400.638,10.3088,3.84489,-0.00395027
402.938,10.3806,3.84877,-0.00395091
405.238,10.4526,3.85104,-0.00460957
407.538,10.5244,3.85496,-0.00456266
409.838,10.5965,3.83195,-0.00723417
412.138,10.6683,3.81025,-0.00880253
414.438,10.7406,3.79179,-0.00988007
416.738,10.8126,3.76512,-0.0110813
419.038,10.885,3.72373,-0.0115258
421.338,10.957,3.66067,-0.0128389
423.638,11.0294,3.5899,-0.0154414
425.938,11.1016,3.5045,-0.0179062
428.238,11.1737,3.43478,-0.0195792
430.538,11.2463,3.35728,-0.0220772
432.838,11.3184,3.29981,-0.0251785
435.138,11.3911,3.24277,-0.0292532
437.438,11.4634,3.19301,-0.0330027
439.738,11.5361,3.13587,-0.0378891
442.038,11.6083,3.05861,-0.0449449
444.338,11.6809,2.98499,-0.0499593
446.638,11.7535,2.89904,-0.0571326
448.938,11.8259,2.80593,-0.0631826
451.238,11.8981,2.71289,-0.0700275
453.538,11.9712,2.61318,-0.0779339
455.838,12.0437,2.54822,-0.0889794
458.138,12.1164,2.48266,-0.0986348
460.438,12.1891,2.40508,-0.107743
462.738,12.2618,2.32236,-0.121489
465.038,12.3345,2.27036,-0.135382
467.338,12.4075,2.231,-0.152996
469.638,12.4804,2.1649,-0.172563
471.938,12.5537,2.15937,-0.195775
474.238,12.627,2.15414,-0.22317
476.538,12.6994,2.1985,-0.254066
478.838,12.7731,2.27961,-0.292188
481.138,12.8466,2.33703,-0.338032
483.438,12.921,2.42908,-0.390388
485.738,12.9947,2.48579,-0.449554
488.038,13.0685,2.55543,-0.517404
490.338,13.142,2.6024,-0.593766
492.638,13.216,2.68668,-0.678401
494.938,13.29,2.78579,-0.769729
497.238,13.364,2.81631,-0.869078
499.538,13.4371,2.85021,-0.97514
501.838,13.5114,2.77077,-1.08773
504.138,13.5853,2.79519,-1.2037
506.438,13.6587,2.87296,-1.32724
508.738,13.7325,2.87519,-1.45635
511.038,13.8074,2.90002,-1.5885
513.338,13.8815,2.93489,-1.72559
515.638,13.9557,2.90079,-1.86406
517.938,14.0292,2.79204,-2.00166
520.238,14.1027,2.59809,-2.13759
522.538,14.1758,2.31852,-2.26624
524.838,14.2485,1.96008,-2.37992
527.138,14.3208,1.53383,-2.48347
529.438,14.3935,1.11487,-2.57353
531.738,14.4662,0.751399,-2.64805
534.038,14.5391,0.433037,-2.71396
536.338,14.6125,0.195265,-2.76781
538.638,14.6862,0.0186162,-2.80922
540.938,14.7597,-0.117205,-2.8435
543.238,14.8337,-0.195021,-2.87005
545.538,14.908,-0.259776,-2.89228
547.838,14.9825,-0.308013,-2.91063
550.138,15.057,-0.339371,-2.9261
552.438,15.1315,-0.373417,-2.94094
554.738,15.2059,-0.412897,-2.95115
557.038,15.2809,-0.442147,-2.96117
559.338,15.3557,-0.467789,-2.96967
561.638,15.4301,-0.482788,-2.97887
563.938,15.5052,-0.51532,-2.98499
566.238,15.5801,-0.539876,-2.99152
568.538,15.6552,-0.566257,-2.99729
570.838,15.7302,-0.572581,-3.00349
573.138,15.8052,-0.589643,-3.00891
575.438,15.88,-0.601894,-3.01366
577.738,15.9551,-0.616533,-3.01813
580.038,16.0299,-0.626386,-3.02548
582.338,16.1052,-0.633407,-3.03023
584.638,16.1805,-0.643225,-3.03212
586.938,16.2559,-0.661412,-3.03695
589.238,16.3309,-0.676209,-3.04071
591.538,16.4064,-0.681195,-3.04582
593.838,16.4814,-0.689592,-3.05068
596.138,16.5564,-0.683859,-3.05418
598.438,16.632,-0.704469,-3.05758
600.738,16.7077,-0.701277,-3.06219
603.038,16.7832,-0.705572,-3.06511
605.338,16.8587,-0.702651,-3.06929
607.638,16.9339,-0.712113,-3.07367
609.938,17.0098,-0.711433,-3.07612
612.238,17.0853,-0.708163,-3.078
614.538,17.1613,-0.640841,-3.08065
616.838,17.2369,-0.615706,-3.0855
619.138,17.3127,-0.609955,-3.08809
621.438,17.3884,-0.59982,-3.09032
623.738,17.4639,-0.589195,-3.09257
626.038,17.5399,-0.587273,-3.09532
628.338,17.6157,-0.589841,-3.0982
630.638,17.691,-0.578201,-3.10091
632.938,17.7672,-0.560933,-3.10359
635.238,17.8433,-0.557817,-3.10641
637.538,17.9193,-0.540878,-3.10872
639.838,17.9951,-0.527782,-3.1108
642.138,18.0713,-0.522075,-3.11311
644.438,18.1475,-0.514779,-3.11609
646.738,18.2236,-0.51759,-3.11866
649.038,18.2996,-0.507675,-3.11971
651.338,18.3757,-0.497931,-3.11974
653.638,18.4519,-0.489319,-3.12246
655.938,18.5278,-0.487442,-3.12383
658.238,18.604,-0.48517,-3.12774
660.538,18.6804,-0.48293,-3.12913
662.838,18.7565,-0.485704,-3.12905
665.138,18.8322,-0.49338,-3.13027
667.438,18.9092,-0.495776,-3.13174
669.738,18.9856,-0.50283,-3.13368
672.038,19.0621,-0.512002,-3.13565
674.338,19.1384,-0.54173,-3.13699
676.638,19.2142,-0.555182,-3.1396
678.938,19.2914,-0.584893,-3.14231
681.238,19.3682,-0.606894,-3.14283
683.538,19.4444,-0.623427,-3.1448
685.838,19.5205,-0.65243,-3.14533
688.138,19.5976,-0.676032,-3.14729
690.438,19.6738,-0.694496,-3.14859
692.738,19.7503,-0.708292,-3.1499
695.038,19.8268,-0.732716,-3.15061
697.338,19.9036,-0.754953,-3.15253
699.638,19.9802,-0.793749,-3.15516
701.938,20.0565,-0.816686,-3.15649
704.238,20.1332,-0.841544,-3.15781
706.538,20.21,-0.869331,-3.15781
708.838,20.286,-0.890251,-3.15913
711.138,20.3634,-0.905447,-3.15915
713.438,20.44,-0.926621,-3.16036
715.738,20.5166,-0.944844,-3.16176
718.038,20.593,-0.96644,-3.16308
720.338,20.6696,-0.981914,-3.16442
722.638,20.7462,-0.996891,-3.16571
724.938,20.823,-1.02737,-3.16703
727.238,20.8995,-1.04121,-3.16964
729.538,20.9764,-1.05491,-3.17099
731.838,21.053,-1.0695,-3.1723
734.138,21.1296,-1.08246,-3.17329
736.438,21.2064,-1.10024,-3.17437
738.738,21.283,-1.11008,-3.17623
740.038,21.3266,-1.12205,-3.17625