Folder: fsri_materials_database/01_Data/Composite_Deck_Board/FTIR/IS

File: Composite_Deck_Board_IS_T_220928_R8.dpt
7497.03,0.02544
7473.89,0.03518
7450.74,0.03261
7427.6,0.02209
7404.45,0.02748
7381.31,0.01491
7358.16,0.01898
7335.02,0.03028
7311.87,0.03121
7288.73,0.01693
7265.58,0.02446
7242.44,0.02923
7219.29,0.02422
7196.15,0.02143
7173,0.03167
7149.86,0.02409
7126.71,0.02963
7103.57,0.02853
7080.42,0.02379
7057.28,0.02772
7034.13,0.02235
7010.99,0.02974
6987.84,0.02701
6964.7,0.02692
6941.55,0.02118
6918.41,0.02719
6895.26,0.02227
6872.12,0.01948
6848.97,0.02214
6825.83,0.02713
6802.68,0.02759
6779.54,0.02055
6756.39,0.02693
6733.25,0.02350
6710.1,0.02004
6686.96,0.02139
6663.82,0.02465
6640.67,0.02111
6617.53,0.02239
6594.38,0.02465
6571.24,0.02320
6548.09,0.02060
6524.95,0.02243
6501.8,0.01840
6478.66,0.02406
6455.51,0.01971
6432.37,0.02281
6409.22,0.02303
6386.08,0.02333
6362.93,0.02147
6339.79,0.02044
6316.64,0.02191
6293.5,0.02054
6270.35,0.02229
6247.21,0.02262
6224.06,0.02171
6200.92,0.02081
6177.77,0.02560
6154.63,0.01939
6131.48,0.02305
6108.34,0.02114
6085.19,0.02057
6062.05,0.01946
6038.9,0.02083
6015.76,0.02035
5992.61,0.02198
5969.47,0.01905
5946.32,0.02157
5923.18,0.02294
5900.03,0.02138
5876.89,0.02319
5853.74,0.02338
5830.6,0.02358
5807.45,0.02043
5784.31,0.02094
5761.16,0.02213
5738.02,0.02274
5714.87,0.02341
5691.73,0.02023
5668.58,0.02132
5645.44,0.02005
5622.29,0.02194
5599.15,0.02371
5576,0.02079
5552.86,0.01898
5529.71,0.02286
5506.57,0.02244
5483.42,0.02256
5460.28,0.02078
5437.13,0.02225
5413.99,0.02162
5390.84,0.02218
5367.7,0.02166
5344.55,0.02258
5321.41,0.02210
5298.26,0.02218
5275.12,0.02208
5251.97,0.02281
5228.83,0.02269
5205.68,0.02157
5182.54,0.02049
5159.39,0.02128
5136.25,0.02394
5113.1,0.02142
5089.96,0.02263
5066.81,0.02377
5043.67,0.02266
5020.52,0.02278
4997.38,0.02323
4974.23,0.02175
4951.09,0.02194
4927.94,0.02193
4904.8,0.02170
4881.65,0.02159
4858.51,0.02185
4835.36,0.02172
4812.22,0.02198
4789.07,0.02257
4765.93,0.02243
4742.78,0.02308
4719.64,0.02196
4696.49,0.02260
4673.35,0.02245
4650.2,0.02133
4627.06,0.02274
4603.92,0.02231
4580.77,0.02272
4557.63,0.02215
4534.48,0.02234
4511.34,0.02266
4488.19,0.02274
4465.05,0.02275
4441.9,0.02247
4418.76,0.02229
4395.61,0.02234
4372.47,0.02209
4349.32,0.02221
4326.18,0.02243
4303.03,0.02273
4279.89,0.02277
4256.74,0.02286
4233.6,0.02233
4210.45,0.02281
4187.31,0.02271
4164.16,0.02294
4141.02,0.02214
4117.87,0.02261
4094.73,0.02246
4071.58,0.02241
4048.44,0.02277
4025.29,0.02168
4002.15,0.02235
3979,0.02279
3955.86,0.02211
3932.71,0.02247
3909.57,0.02280
3886.42,0.02270
3863.28,0.02237
3840.13,0.02340
3816.99,0.02277
3793.84,0.02247
3770.7,0.02304
3747.55,0.02187
3724.41,0.02202
3701.26,0.02263
3678.12,0.02273
3654.97,0.02259
3631.83,0.02180
3608.68,0.02242
3585.54,0.02152
3562.39,0.02151
3539.25,0.02121
3516.1,0.02095
3492.96,0.02141
3469.81,0.02047
3446.67,0.02107
3423.52,0.02117
3400.38,0.02090
3377.23,0.02080
3354.09,0.02029
3330.94,0.02014
3307.8,0.02074
3284.65,0.02000
3261.51,0.01998
3238.36,0.02104
3215.22,0.02063
3192.07,0.02010
3168.93,0.02071
3145.78,0.02059
3122.64,0.02071
3099.49,0.02100
3076.35,0.02061
3053.2,0.02022
3030.06,0.02025
3006.91,0.02032
2983.77,0.01955
2960.62,0.01956
2937.48,0.01975
2914.33,0.02074
2891.19,0.01998
2868.04,0.02031
2844.9,0.02082
2821.75,0.02121
2798.61,0.02127
2775.46,0.02127
2752.32,0.02105
2729.17,0.02094
2706.03,0.02121
2682.88,0.02108
2659.74,0.02132
2636.59,0.02142
2613.45,0.02116
2590.3,0.02145
2567.16,0.02133
2544.02,0.02141
2520.87,0.02111
2497.73,0.02155
2474.58,0.02113
2451.44,0.02141
2428.29,0.02109
2405.15,0.02139
2382,0.02139
2358.86,0.02148
2335.71,0.02141
2312.57,0.02113
2289.42,0.02103
2266.28,0.02121
2243.13,0.02105
2219.99,0.02091
2196.84,0.02119
2173.7,0.02082
2150.55,0.02106
2127.41,0.02121
2104.26,0.02061
2081.12,0.02077
2057.97,0.02062
2034.83,0.02091
2011.68,0.02085
1988.54,0.02097
1965.39,0.02090
1942.25,0.02086
1919.1,0.02071
1895.96,0.02053
1872.81,0.02085
1849.67,0.02026
1826.52,0.02011
1803.38,0.02006
1780.23,0.01937
1757.09,0.01747
1733.94,0.01956
1710.8,0.02047
1687.65,0.01936
1664.51,0.01862
1641.36,0.01832
1618.22,0.01914
1595.07,0.01909
1571.93,0.01850
1548.78,0.01803
1525.64,0.01857
1502.49,0.01854
1479.35,0.01863
1456.2,0.01877
1433.06,0.01893
1409.91,0.01850
1386.77,0.01818
1363.62,0.01834
1340.48,0.01791
1317.33,0.01740
1294.19,0.01782
1271.04,0.01920
1247.9,0.02049
1224.75,0.01932
1201.61,0.01884
1178.46,0.01776
1155.32,0.01774
1132.17,0.01799
1109.03,0.01852
1085.88,0.01752
1062.74,0.01982
1039.59,0.01879
1016.45,0.01929
993.304,0.02077
970.159,0.01988
947.014,0.02011
923.869,0.01991
900.724,0.01896
877.579,0.01959
854.434,0.01914
831.289,0.01983
808.144,0.01888
784.999,0.01823
761.854,0.01851
738.709,0.01863
715.565,0.01806
692.42,0.01751
669.275,0.01630
646.13,0.01649
622.985,0.01493
599.84,0.01601