Folder: fsri_materials_database/01_Data/Nylon_SCBA_Nosecup/STA/N2/10K_min

File: Nylon_SCBA_Nosecup_STA_N2_10KData_240226_R1.csv
Temp./C,Time/min,DSC/(mW/mg),Mass loss/mg
60.0,0.0,1.02957,-0.00931888
62.3,0.259549,1.09247,-0.00926201
64.6,0.5131,1.14176,-0.0105627
66.9,0.761041,1.18361,-0.0105286
69.2,1.0068,1.22242,-0.0105986
71.5,1.25009,1.25205,-0.0114981
73.8,1.48997,1.28057,-0.0106466
76.1,1.73104,1.28745,-0.0106469
78.4,1.9685,1.26657,-0.010923
80.7,2.20379,1.24375,-0.0106026
83,2.43857,1.22927,-0.0111621
85.3,2.66961,1.22823,-0.0113289
87.6,2.90422,1.24234,-0.0133236
89.9,3.1337,1.25815,-0.01361
92.2,3.3626,1.28222,-0.0132591
94.5,3.59086,1.29599,-0.0132903
96.8,3.81778,1.31354,-0.01328
99.1,4.04495,1.32753,-0.01328
101.4,4.26782,1.35935,-0.0132879
103.7,4.49562,1.36851,-0.0133431
106,4.72136,1.3897,-0.0136116
108.3,4.94403,1.40126,-0.0146
110.6,5.16885,1.4161,-0.014716
112.9,5.39228,1.43465,-0.0145932
115.2,5.61631,1.45355,-0.0152601
117.5,5.83795,1.46707,-0.0152599
119.8,6.06237,1.48381,-0.0162957
122.1,6.28606,1.49,-0.01658
124.4,6.50874,1.49851,-0.0159177
126.7,6.72996,1.5176,-0.0152562
129,6.95224,1.52806,-0.0165797
131.3,7.17417,1.53312,-0.0179
133.6,7.39481,1.53836,-0.0165766
135.9,7.61628,1.55794,-0.0163853
138.2,7.83722,1.56857,-0.0173069
140.5,8.05769,1.57982,-0.01789
142.8,8.27761,1.586,-0.0178912
145.1,8.49831,1.59933,-0.0178668
147.4,8.71919,1.59836,-0.0202001
149.7,8.93769,1.62132,-0.0205299
152,9.15934,1.62807,-0.02053
154.3,9.37866,1.64365,-0.02185
156.6,9.59919,1.66016,-0.0231971
158.9,9.81779,1.67332,-0.02317
161.2,10.0372,1.67955,-0.0245286
163.5,10.2566,1.68677,-0.02317
165.8,10.477,1.69593,-0.0248758
168.1,10.6958,1.70891,-0.02448
170.4,10.9147,1.72084,-0.0258
172.7,11.132,1.73868,-0.0257984
175,11.3525,1.75552,-0.0243581
177.3,11.5722,1.77137,-0.0271199
179.6,11.7908,1.78817,-0.0258
181.9,12.0083,1.8029,-0.0264589
184.2,12.2271,1.82731,-0.02613
186.5,12.4456,1.84085,-0.0258004
188.8,12.6646,1.87389,-0.02711
191.1,12.8841,1.9093,-0.0271357
193.4,13.1031,1.95304,-0.02712
195.7,13.3214,2.02432,-0.02844
198,13.5414,2.10431,-0.02844
200.3,13.7598,2.25008,-0.0285839
202.6,13.9838,2.51038,-0.0281097
204.9,14.2066,2.81612,-0.0273282
207.2,14.429,3.13042,-0.0283729
209.5,14.6511,3.47092,-0.02975
211.8,14.875,3.78823,-0.0284304
214.1,15.0948,3.813,-0.0294211
216.4,15.3035,2.86545,-0.0294199
218.7,15.5123,2.1274,-0.02942
221,15.7274,1.90722,-0.02975
223.3,15.943,1.84998,-0.0317568
225.6,16.1598,1.84684,-0.0307395
227.9,16.3779,1.84551,-0.03074
230.2,16.5963,1.84824,-0.03041
232.5,16.8135,1.84713,-0.0317191
234.8,17.0321,1.8475,-0.0310734
237.1,17.2498,1.84965,-0.0314065
239.4,17.4686,1.85352,-0.0314
241.7,17.6863,1.84735,-0.0310699
244,17.9054,1.84316,-0.0313909
246.3,18.1239,1.84276,-0.0323946
248.6,18.3414,1.84243,-0.03239
250.9,18.5588,1.83771,-0.0317297
253.2,18.7776,1.83337,-0.0323894
255.5,18.995,1.8233,-0.03239
257.8,19.2135,1.82759,-0.0323897
260.1,19.4316,1.8254,-0.0323328
262.4,19.6502,1.82401,-0.0340401
264.7,19.868,1.83379,-0.03338
267,20.086,1.83084,-0.03338
269.3,20.3052,1.8266,-0.0337088
271.6,20.5237,1.82753,-0.0350189
273.9,20.7434,1.82102,-0.03502
276.2,20.9621,1.82142,-0.0350204
278.5,21.1822,1.8142,-0.0362812
280.8,21.4012,1.82281,-0.0350165
283.1,21.6198,1.81898,-0.0369845
285.4,21.8386,1.81598,-0.034369
287.7,22.0595,1.81674,-0.03568
290,22.2792,1.81672,-0.03667
292.3,22.4973,1.82084,-0.037
294.6,22.7183,1.82296,-0.03799
296.9,22.9372,1.82477,-0.037987
299.2,23.1567,1.83701,-0.0392999
301.5,23.3775,1.84213,-0.0393
303.8,23.5972,1.84808,-0.040258
306.1,23.8172,1.85297,-0.0416067
308.4,24.0353,1.85571,-0.0402946
310.7,24.2556,1.85357,-0.0399599
313,24.4743,1.86469,-0.0402907
315.3,24.6941,1.87487,-0.04061
317.6,24.915,1.87425,-0.04062
319.9,25.1337,1.87691,-0.0432085
322.2,25.3542,1.88513,-0.04326
324.5,25.5747,1.88746,-0.04458
326.8,25.7952,1.89788,-0.04589
329.1,26.0158,1.8993,-0.04622
331.4,26.2375,1.89512,-0.0485195
333.7,26.4574,1.90058,-0.0482001
336,26.6787,1.90319,-0.0485355
338.3,26.9,1.89684,-0.0500508
340.6,27.1199,1.89584,-0.0511269
342.9,27.342,1.89282,-0.0527029
345.2,27.5636,1.89607,-0.0547803
347.5,27.7845,1.886,-0.0551195
349.8,28.006,1.88743,-0.0569783
352.1,28.2275,1.89374,-0.0611605
354.4,28.4502,1.8937,-0.0628758
356.7,28.6691,1.90793,-0.0643393
359,28.8931,1.91358,-0.0669643
361.3,29.1154,1.92405,-0.0695666
363.6,29.3379,1.93676,-0.07356
365.9,29.5589,1.94365,-0.0775066
368.2,29.7817,1.96964,-0.0819664
370.5,30.0017,1.9817,-0.0849084
372.8,30.2259,1.99301,-0.09064
375.1,30.4484,2.00949,-0.0964243
377.4,30.6696,2.03508,-0.100577
379.7,30.8942,2.06622,-0.105938
382,31.1169,2.09162,-0.114411
384.3,31.3395,2.12515,-0.121256
386.6,31.5631,2.16412,-0.128831
388.9,31.7867,2.20302,-0.138226
391.2,32.0096,2.25856,-0.148199
393.5,32.2325,2.3169,-0.158947
395.8,32.4557,2.37094,-0.170616
398.1,32.6813,2.43581,-0.185201
400.4,32.9067,2.51239,-0.199883
402.7,33.1315,2.59845,-0.21706
405,33.3569,2.68344,-0.238483
407.3,33.582,2.78256,-0.258408
409.6,33.8064,2.87251,-0.281193
411.9,34.0341,2.98794,-0.308561
414.2,34.2586,3.095,-0.338507
416.5,34.4845,3.21799,-0.372475
418.8,34.7116,3.40322,-0.411711
421.1,34.9378,3.53368,-0.452441
423.4,35.1645,3.67361,-0.497816
425.7,35.3909,3.8292,-0.547547
428,35.6174,3.98287,-0.602309
430.3,35.8435,4.15279,-0.663735
432.6,36.0684,4.31132,-0.730436
434.9,36.2981,4.50294,-0.802087
437.2,36.5247,4.67578,-0.884453
439.5,36.7527,4.85238,-0.969751
441.8,36.9805,5.01556,-1.06213
444.1,37.2083,5.20418,-1.16294
446.4,37.4358,5.35974,-1.27107
448.7,37.6637,5.48749,-1.38369
451,37.8904,5.57792,-1.50533
453.3,38.1174,5.62276,-1.63361
455.6,38.3425,5.53263,-1.7603
457.9,38.5641,5.32868,-1.88978
460.2,38.7871,4.97963,-2.0195
462.5,39.008,4.47754,-2.13939
464.8,39.2251,3.86926,-2.24943
467.1,39.4437,3.21366,-2.34895
469.4,39.6606,2.59579,-2.43267
471.7,39.879,2.02737,-2.50714
474,40.1007,1.57537,-2.56414
476.3,40.3227,1.26209,-2.61264
478.6,40.5468,1.03939,-2.65263
480.9,40.7689,0.883785,-2.68742
483.2,40.996,0.758996,-2.71496
485.5,41.2215,0.640777,-2.74202
487.8,41.4462,0.538421,-2.7603
490.1,41.6712,0.449026,-2.77455
492.4,41.8967,0.363272,-2.78331
494.7,42.1225,0.310469,-2.78861
497,42.3481,0.278877,-2.79255
499.3,42.5751,0.283272,-2.79522
501.6,42.7989,0.282096,-2.79551
503.9,43.0258,0.277452,-2.79551
506.2,43.2541,0.276147,-2.79452
508.5,43.481,0.250654,-2.79518
510.8,43.708,0.240724,-2.79584
513.1,43.9346,0.219641,-2.79619
515.4,44.1629,0.212219,-2.7965
517.7,44.3904,0.201109,-2.79486
520,44.6172,0.191731,-2.79747
522.3,44.845,0.172957,-2.79747
524.6,45.0726,0.160495,-2.79749
526.9,45.2991,0.135077,-2.79649
529.2,45.5274,0.109349,-2.7965
531.5,45.7549,0.0881138,-2.79735
533.8,45.9832,0.0642085,-2.79717
536.1,46.2101,0.0342193,-2.7965
538.4,46.4382,0.0214479,-2.7965
540.7,46.6665,-0.00253407,-2.79914
543,46.8946,-0.0243417,-2.79749
545.3,47.1216,-0.0442402,-2.79881
547.6,47.3489,-0.0609892,-2.79881
549.9,47.5773,-0.0852762,-2.79881
552.2,47.8047,-0.0896046,-2.79795
554.5,48.0326,-0.113978,-2.79779
556.8,48.261,-0.128628,-2.79847
559.1,48.4887,-0.140633,-2.79845
561.4,48.7173,-0.163642,-2.79875
563.7,48.945,-0.171609,-2.80011
566,49.1725,-0.18939,-2.79881
568.3,49.4007,-0.207566,-2.80012
570.6,49.6301,-0.216561,-2.80013
572.9,49.8572,-0.22389,-2.80013
575.2,50.0858,-0.223616,-2.80046
577.5,50.3152,-0.226231,-2.80045
579.8,50.5435,-0.240445,-2.79946
582.1,50.7718,-0.24226,-2.79946
584.4,51.0017,-0.236856,-2.80045
586.7,51.2301,-0.231775,-2.79982
589,51.46,-0.233424,-2.79913
591.3,51.689,-0.221813,-2.80045
593.6,51.9182,-0.230692,-2.79782
595.9,52.1476,-0.214432,-2.80045
598.2,52.3761,-0.208308,-2.80045
600.5,52.6068,-0.202085,-2.80079
602.8,52.8351,-0.185557,-2.80046
605.1,53.0633,-0.176348,-2.80184
607.4,53.2919,-0.166567,-2.80045
609.7,53.5205,-0.163209,-2.80045
612,53.7502,-0.14618,-2.80218
614.3,53.9789,-0.132971,-2.80012
616.6,54.2109,-0.127557,-2.79979
618.9,54.4424,-0.109777,-2.80111
621.2,54.6723,-0.105426,-2.80111
623.5,54.9048,-0.0971069,-2.80207
625.8,55.1349,-0.0933199,-2.80078
628.1,55.3662,-0.0808908,-2.80111
630.4,55.5967,-0.0807296,-2.80013
632.7,55.8272,-0.0800631,-2.80112
635,56.0582,-0.0732206,-2.80145
637.3,56.289,-0.0718118,-2.80243
639.6,56.5198,-0.0711865,-2.80078
641.9,56.7506,-0.0600483,-2.8021
644.2,56.9794,-0.0593154,-2.8021
646.5,57.2111,-0.0659404,-2.80111
648.8,57.4426,-0.0634977,-2.80119
651.1,57.6734,-0.0652065,-2.80177
653.4,57.9039,-0.0597099,-2.80309
655.7,58.136,-0.0555749,-2.80309
658,58.3679,-0.0634389,-2.8024
660.3,58.5996,-0.065666,-2.80163
662.6,58.8322,-0.0653154,-2.80407
664.9,59.0641,-0.072064,-2.80275
667.2,59.2955,-0.0739115,-2.80342
669.5,59.5276,-0.0692296,-2.80342
671.8,59.7581,-0.0684425,-2.80345
674.1,59.9892,-0.0690098,-2.80408
676.4,60.2188,-0.0754829,-2.80276
678.7,60.4513,-0.076009,-2.80377
681,60.6821,-0.0779567,-2.8034
683.3,60.9138,-0.0815009,-2.8031
685.6,61.144,-0.081018,-2.80438
687.9,61.3763,-0.0737064,-2.80406
690.2,61.6075,-0.071065,-2.80472
692.5,61.8396,-0.0731739,-2.80374
694.8,62.0709,-0.0683795,-2.80243
697.1,62.303,-0.0651243,-2.80334
699.4,62.534,-0.0643776,-2.80342
701.7,62.7651,-0.0654151,-2.80474
704,62.9982,-0.0625962,-2.80342
706.3,63.2303,-0.0562208,-2.80506
708.6,63.4642,-0.0519712,-2.80509
710.9,63.6944,-0.0582917,-2.80374
713.2,63.9282,-0.057602,-2.80374
715.5,64.1592,-0.0603162,-2.80374
717.8,64.3923,-0.0581362,-2.80506
720.1,64.6245,-0.0560769,-2.80619
722.4,64.8575,-0.0628232,-2.80506
724.7,65.0901,-0.0630163,-2.80572
727,65.3219,-0.063831,-2.80512
729.3,65.5547,-0.0680385,-2.80693
731.6,65.7867,-0.0767834,-2.80562
733.9,66.0188,-0.0832381,-2.80561
736.2,66.251,-0.0872745,-2.80693
738.5,66.482,-0.0944231,-2.80562
740,66.6333,-0.0961608,-2.80693