Folder: fsri_materials_database/01_Data/Nylon_SCBA_Nosecup/STA/N2/30K_min

File: Nylon_SCBA_Nosecup_STA_N2_30KData_240304_R1.csv
Temp./C,Time/min,DSC/(mW/mg),Mass loss/mg
60.0,0.0,2.13416,-0.00680305
62.3,0.115358,2.43543,-0.0056427
64.6,0.222015,2.6933,-0.00894763
66.9,0.321657,2.93675,-0.00808807
69.2,0.417172,3.15402,-0.00742603
71.5,0.50939,3.33967,-0.00697772
73.8,0.598357,3.50584,-0.0075532
76.1,0.685348,3.6448,-0.00882847
78.4,0.770681,3.77966,-0.00996391
80.7,0.853916,3.88056,-0.00640991
83,0.936241,3.92745,-0.00684851
85.3,1.01723,3.96958,-0.00897828
87.6,1.09735,3.99524,-0.00966803
89.9,1.17649,4.02114,-0.00865973
92.2,1.25534,4.06076,-0.00660272
94.5,1.33229,4.10962,-0.00636724
96.8,1.41097,4.16884,-0.00822754
99.1,1.48842,4.2185,-0.00768503
101.4,1.56548,4.27863,-0.00786051
103.7,1.64209,4.33379,-0.00889494
106,1.71861,4.3974,-0.00932097
108.3,1.79513,4.45493,-0.00899866
110.6,1.87163,4.51761,-0.0103598
112.9,1.94745,4.57277,-0.00919704
115.2,2.02354,4.61515,-0.0103191
117.5,2.09971,4.67191,-0.00899926
119.8,2.17546,4.70965,-0.010308
122.1,2.25087,4.75174,-0.0103098
124.4,2.32669,4.79647,-0.0103199
126.7,2.40154,4.84655,-0.00895559
129,2.47633,4.88999,-0.00899848
131.3,2.55123,4.93599,-0.0103228
133.6,2.62572,4.98345,-0.0102738
135.9,2.69998,5.03457,-0.00900003
138.2,2.77425,5.08098,-0.00966151
140.5,2.84809,5.12404,-0.00956364
142.8,2.92176,5.17194,-0.0116699
145.1,2.99547,5.2192,-0.010669
147.4,3.06782,5.26359,-0.0108997
149.7,3.14104,5.30981,-0.0109802
152,3.21456,5.37393,-0.00965295
154.3,3.28741,5.42475,-0.0109795
156.6,3.36014,5.47307,-0.01098
158.9,3.43268,5.5185,-0.010981
161.2,3.50526,5.56714,-0.0122953
163.5,3.57677,5.62769,-0.0123
165.8,3.64999,5.67995,-0.0122964
168.1,3.72238,5.73971,-0.0136213
170.4,3.79427,5.79107,-0.0142751
172.7,3.86601,5.84443,-0.01427
175,3.93792,5.91087,-0.0142676
177.3,4.00991,5.97884,-0.0155897
179.6,4.08132,6.05829,-0.01559
181.9,4.15283,6.13423,-0.0143915
184.2,4.22405,6.21716,-0.015231
186.5,4.29533,6.30273,-0.0165854
188.8,4.3665,6.41985,-0.0165916
191.1,4.43755,6.56312,-0.0165665
193.4,4.50881,6.73942,-0.0152608
195.7,4.57929,6.96417,-0.0155919
198,4.6511,7.27311,-0.016909
200.3,4.72318,7.73928,-0.0182631
202.6,4.79563,8.35772,-0.0182362
204.9,4.86882,9.10436,-0.0169102
207.2,4.94206,9.88346,-0.0155888
209.5,5.0148,10.6265,-0.0164947
211.8,5.08637,11.0123,-0.0174427
214.1,5.15329,10.0972,-0.0179
216.4,5.21902,8.80402,-0.0179
218.7,5.2857,7.95258,-0.0184735
221,5.35392,7.40961,-0.0185659
223.3,5.4215,7.0629,-0.0178639
225.6,5.49055,6.84735,-0.0203496
227.9,5.55936,6.7257,-0.0192117
230.2,5.62876,6.63185,-0.0192099
232.5,5.69795,6.58315,-0.0178436
234.8,5.76724,6.55525,-0.01921
237.1,5.8365,6.53882,-0.0194098
239.4,5.90586,6.52695,-0.0192183
241.7,5.97522,6.53956,-0.0178887
244,6.04478,6.53546,-0.0205315
246.3,6.11412,6.54856,-0.0212104
248.6,6.18325,6.55636,-0.0217227
250.9,6.25256,6.56319,-0.0205301
253.2,6.32209,6.56721,-0.0205392
255.5,6.39145,6.56835,-0.0218518
257.8,6.46038,6.57772,-0.02185
260.1,6.52978,6.56892,-0.02185
262.4,6.59901,6.56913,-0.0205303
264.7,6.66812,6.57804,-0.02053
267,6.73755,6.57206,-0.02053
269.3,6.80685,6.5631,-0.020533
271.6,6.87614,6.56113,-0.0205296
273.9,6.94538,6.55386,-0.0192114
276.2,7.01474,6.54608,-0.0192026
278.5,7.08357,6.54346,-0.0218943
280.8,7.15333,6.54011,-0.02185
283.1,7.22248,6.53273,-0.02185
285.4,7.2913,6.52917,-0.02185
287.7,7.36129,6.51995,-0.02185
290,7.43086,6.51465,-0.02185
292.3,7.50041,6.51168,-0.02185
294.6,7.56954,6.50651,-0.02185
296.9,7.63903,6.51069,-0.0228255
299.2,7.70831,6.49856,-0.02284
301.5,7.77809,6.49706,-0.02284
303.8,7.84751,6.49218,-0.0231825
306.1,7.91709,6.48798,-0.0231698
308.4,7.98683,6.47699,-0.0234799
310.7,8.05644,6.47492,-0.0235
313,8.1263,6.47517,-0.0235
315.3,8.19565,6.47381,-0.0235
317.6,8.26515,6.46836,-0.0234948
319.9,8.33511,6.46492,-0.0248053
322.2,8.40485,6.46009,-0.0254688
324.5,8.47405,6.45978,-0.02547
326.8,8.54459,6.45955,-0.0251405
329.1,8.61428,6.46094,-0.0238227
331.4,8.68438,6.45963,-0.025786
333.7,8.75436,6.46794,-0.0271237
336,8.8245,6.46737,-0.02712
338.3,8.89422,6.47509,-0.02712
340.6,8.96455,6.47798,-0.0271195
342.9,9.03447,6.48761,-0.0274589
345.2,9.10477,6.48875,-0.0287663
347.5,9.17518,6.48965,-0.0287448
349.8,9.24548,6.49718,-0.0299816
352.1,9.31591,6.50049,-0.0314019
354.4,9.3862,6.50212,-0.0304781
356.7,9.45644,6.50932,-0.0324535
359,9.52682,6.50645,-0.0325146
361.3,9.59782,6.50587,-0.0335481
363.6,9.66857,6.50143,-0.0340204
365.9,9.73924,6.50664,-0.0366726
368.2,9.80964,6.5153,-0.0386611
370.5,9.88107,6.52941,-0.0394237
372.8,9.95181,6.54305,-0.0419457
375.1,10.0231,6.56482,-0.0418723
377.4,10.0938,6.58306,-0.0432474
379.7,10.1643,6.60195,-0.0465171
382,10.2361,6.63358,-0.0482706
384.3,10.3078,6.65499,-0.0513664
386.6,10.3788,6.67537,-0.0543437
388.9,10.4502,6.72105,-0.0579416
391.2,10.5218,6.76121,-0.0623126
393.5,10.5931,6.80369,-0.066596
395.8,10.6649,6.84569,-0.069381
398.1,10.7367,6.89687,-0.0749539
400.4,10.8083,6.95836,-0.0811306
402.7,10.8803,7.02252,-0.0870392
405,10.9519,7.09836,-0.0933907
407.3,11.0242,7.18143,-0.100599
409.6,11.0962,7.26856,-0.111031
411.9,11.1686,7.36717,-0.118141
414.2,11.241,7.47643,-0.128512
416.5,11.3132,7.60031,-0.137134
418.8,11.3859,7.74441,-0.14783
421.1,11.4587,7.89667,-0.161139
423.4,11.5313,8.05495,-0.174169
425.7,11.6042,8.21889,-0.189936
428,11.677,8.42786,-0.206388
430.3,11.7502,8.64069,-0.225659
432.6,11.8233,8.88591,-0.245085
434.9,11.8969,9.13289,-0.267534
437.2,11.9704,9.39023,-0.290597
439.5,12.0439,9.65084,-0.318727
441.8,12.1178,9.99629,-0.351269
444.1,12.1918,10.316,-0.387177
446.4,12.2657,10.693,-0.425432
448.7,12.3401,11.126,-0.470785
451,12.4148,11.5669,-0.520589
453.3,12.4896,12.0632,-0.574628
455.6,12.5642,12.58,-0.637063
457.9,12.6391,13.1185,-0.705904
460.2,12.7144,13.7065,-0.780789
462.5,12.7902,14.3117,-0.862793
464.8,12.8653,14.9602,-0.954427
467.1,12.9413,15.5702,-1.05342
469.4,13.017,16.1461,-1.16502
471.7,13.092,16.6672,-1.28129
474,13.1673,17.0834,-1.40765
476.3,13.2413,17.1963,-1.5434
478.6,13.3144,17.0107,-1.67557
480.9,13.3865,16.4913,-1.80644
483.2,13.4575,15.6239,-1.93625
485.5,13.5271,14.4921,-2.06151
487.8,13.5957,13.0933,-2.17783
490.1,13.6635,11.5345,-2.27927
492.4,13.7307,9.80136,-2.37002
494.7,13.7978,8.02025,-2.44911
497,13.8652,6.43992,-2.50804
499.3,13.9331,5.17573,-2.55707
501.6,14.0026,4.22121,-2.59798
503.9,14.0727,3.51648,-2.63038
506.2,14.1437,2.98872,-2.65419
508.5,14.2149,2.59512,-2.67271
510.8,14.2869,2.28425,-2.68634
513.1,14.3589,2.04909,-2.69643
515.4,14.4316,1.87798,-2.70309
517.7,14.5048,1.78279,-2.70728
520,14.5779,1.72853,-2.70912
522.3,14.6512,1.70155,-2.71044
524.6,14.7249,1.68654,-2.7117
526.9,14.7985,1.67367,-2.71175
529.2,14.8722,1.65839,-2.71307
531.5,14.9463,1.65695,-2.71307
533.8,15.0202,1.66152,-2.7138
536.1,15.0936,1.66598,-2.71439
538.4,15.1682,1.66069,-2.71472
540.7,15.242,1.65766,-2.71396
543,15.3168,1.64855,-2.71405
545.3,15.3907,1.63751,-2.71409
547.6,15.4654,1.62946,-2.71451
549.9,15.5397,1.61406,-2.71399
552.2,15.614,1.60854,-2.71535
554.5,15.6883,1.6003,-2.71537
556.8,15.763,1.57376,-2.71635
559.1,15.8376,1.56179,-2.71635
561.4,15.9123,1.54397,-2.7154
563.7,15.987,1.52434,-2.71537
566,16.0617,1.50975,-2.71537
568.3,16.1365,1.49476,-2.71636
570.6,16.2115,1.48157,-2.71636
572.9,16.2863,1.46354,-2.71636
575.2,16.3613,1.43902,-2.71637
577.5,16.4362,1.42611,-2.71504
579.8,16.5107,1.41016,-2.71501
582.1,16.5863,1.39499,-2.71735
584.4,16.6616,1.38075,-2.71603
586.7,16.7364,1.36354,-2.71669
589,16.8121,1.34939,-2.71669
591.3,16.8874,1.33566,-2.71669
593.6,16.9629,1.31659,-2.71679
595.9,17.0379,1.29669,-2.71736
598.2,17.1135,1.27088,-2.71801
600.5,17.189,1.25483,-2.7183
602.8,17.2644,1.23573,-2.71735
605.1,17.3405,1.21034,-2.71668
607.4,17.4161,1.18237,-2.71635
609.7,17.4919,1.16724,-2.71636
612,17.5677,1.14052,-2.71636
614.3,17.6437,1.12798,-2.71603
616.6,17.7196,1.11317,-2.71603
618.9,17.7954,1.092,-2.71603
621.2,17.8713,1.08535,-2.71671
623.5,17.9473,1.0699,-2.71796
625.8,18.0233,1.05856,-2.71866
628.1,18.0995,1.04325,-2.71793
630.4,18.1759,1.133,-2.71735
632.7,18.2509,1.079,-2.71767
635,18.3274,1.05798,-2.71918
637.3,18.4036,1.03719,-2.7203
639.6,18.4794,1.01568,-2.71965
641.9,18.5554,0.986902,-2.71965
644.2,18.6321,0.964394,-2.71965
646.5,18.7084,0.942656,-2.71902
648.8,18.7848,0.926428,-2.719
651.1,18.8614,0.905886,-2.71999
653.4,18.9377,0.888609,-2.72032
655.7,19.0141,0.883501,-2.72064
658,19.0905,0.871105,-2.72064
660.3,19.1672,0.864419,-2.72064
662.6,19.2437,0.858842,-2.72065
664.9,19.3199,0.840208,-2.72064
667.2,19.3968,0.844064,-2.71966
669.5,19.4734,0.844551,-2.71831
671.8,19.55,0.855912,-2.71834
674.1,19.6269,0.852821,-2.71829
676.4,19.7037,0.858637,-2.71855
678.7,19.7802,0.865565,-2.72108
681,19.8569,0.869696,-2.72108
683.3,19.9338,0.883748,-2.7211
685.6,20.0104,0.888988,-2.72108
687.9,20.0875,0.904663,-2.72108
690.2,20.1646,0.913328,-2.72119
692.5,20.2413,0.921254,-2.71982
694.8,20.3185,0.932895,-2.71987
697.1,20.3947,0.941254,-2.71988
699.4,20.472,0.949354,-2.72119
701.7,20.5493,0.962077,-2.72118
704,20.6263,0.977456,-2.71987
706.3,20.7034,0.988646,-2.72152
708.6,20.7807,0.99712,-2.72152
710.9,20.8575,1.00924,-2.72283
713.2,20.9346,1.0268,-2.72152
715.5,21.012,1.03624,-2.7202
717.8,21.0891,1.03625,-2.72158
720.1,21.1665,1.05277,-2.71998
722.4,21.2435,1.06247,-2.72042
724.7,21.321,1.06476,-2.7213
727,21.3983,1.07042,-2.71999
729.3,21.4755,1.07789,-2.71998
731.6,21.5528,1.07208,-2.7213
733.9,21.6301,1.07074,-2.72133
736.2,21.7079,1.06732,-2.72314
738.5,21.7848,1.05927,-2.72261
740,21.8353,1.05599,-2.72262