Folder: fsri_materials_database/01_Data/Basswood_Panel/FTIR/IS

File: Basswood_Panel_IS_T_220928_R3.dpt
7497.03,0.02764
7473.89,0.03392
7450.74,0.01549
7427.6,0.02182
7404.45,0.02315
7381.31,0.02259
7358.16,0.02584
7335.02,0.02591
7311.87,0.02434
7288.73,0.03162
7265.58,0.02496
7242.44,0.02724
7219.29,0.02231
7196.15,0.01986
7173,0.02258
7149.86,0.02752
7126.71,0.02279
7103.57,0.02532
7080.42,0.02777
7057.28,0.02457
7034.13,0.02764
7010.99,0.02444
6987.84,0.02679
6964.7,0.02614
6941.55,0.02375
6918.41,0.02299
6895.26,0.02938
6872.12,0.02057
6848.97,0.02642
6825.83,0.02049
6802.68,0.02726
6779.54,0.02267
6756.39,0.02375
6733.25,0.02656
6710.1,0.02390
6686.96,0.02015
6663.82,0.02352
6640.67,0.02833
6617.53,0.02301
6594.38,0.02077
6571.24,0.02211
6548.09,0.02205
6524.95,0.02044
6501.8,0.02075
6478.66,0.02725
6455.51,0.02239
6432.37,0.02184
6409.22,0.02038
6386.08,0.02266
6362.93,0.02201
6339.79,0.02096
6316.64,0.02578
6293.5,0.02314
6270.35,0.02127
6247.21,0.02013
6224.06,0.02241
6200.92,0.02346
6177.77,0.02106
6154.63,0.02114
6131.48,0.02119
6108.34,0.02170
6085.19,0.02095
6062.05,0.02203
6038.9,0.02418
6015.76,0.02285
5992.61,0.02273
5969.47,0.01909
5946.32,0.02078
5923.18,0.02087
5900.03,0.02055
5876.89,0.01938
5853.74,0.02395
5830.6,0.02278
5807.45,0.02207
5784.31,0.02259
5761.16,0.02114
5738.02,0.02248
5714.87,0.02228
5691.73,0.02121
5668.58,0.02150
5645.44,0.02275
5622.29,0.02178
5599.15,0.01832
5576,0.02145
5552.86,0.02099
5529.71,0.02151
5506.57,0.02258
5483.42,0.02251
5460.28,0.02103
5437.13,0.02372
5413.99,0.02154
5390.84,0.02013
5367.7,0.02109
5344.55,0.02159
5321.41,0.02204
5298.26,0.02004
5275.12,0.02231
5251.97,0.02206
5228.83,0.02178
5205.68,0.02293
5182.54,0.02194
5159.39,0.02253
5136.25,0.02268
5113.1,0.02125
5089.96,0.02254
5066.81,0.02132
5043.67,0.02201
5020.52,0.02323
4997.38,0.02122
4974.23,0.02138
4951.09,0.02294
4927.94,0.02149
4904.8,0.02352
4881.65,0.02362
4858.51,0.02242
4835.36,0.02270
4812.22,0.02249
4789.07,0.02377
4765.93,0.02342
4742.78,0.02153
4719.64,0.02185
4696.49,0.02312
4673.35,0.02180
4650.2,0.02209
4627.06,0.02219
4603.92,0.02268
4580.77,0.02238
4557.63,0.02213
4534.48,0.02179
4511.34,0.02188
4488.19,0.02212
4465.05,0.02206
4441.9,0.02215
4418.76,0.02239
4395.61,0.02189
4372.47,0.02273
4349.32,0.02181
4326.18,0.02279
4303.03,0.02194
4279.89,0.02255
4256.74,0.02261
4233.6,0.02175
4210.45,0.02340
4187.31,0.02282
4164.16,0.02192
4141.02,0.02240
4117.87,0.02252
4094.73,0.02268
4071.58,0.02277
4048.44,0.02202
4025.29,0.02224
4002.15,0.02229
3979,0.02241
3955.86,0.02250
3932.71,0.02233
3909.57,0.02230
3886.42,0.02282
3863.28,0.02257
3840.13,0.02296
3816.99,0.02268
3793.84,0.02257
3770.7,0.02189
3747.55,0.02230
3724.41,0.02275
3701.26,0.02221
3678.12,0.02328
3654.97,0.02191
3631.83,0.02160
3608.68,0.02137
3585.54,0.02185
3562.39,0.02092
3539.25,0.02128
3516.1,0.02086
3492.96,0.02080
3469.81,0.02028
3446.67,0.02052
3423.52,0.02028
3400.38,0.02036
3377.23,0.02001
3354.09,0.02015
3330.94,0.02016
3307.8,0.01998
3284.65,0.02039
3261.51,0.02033
3238.36,0.02002
3215.22,0.02099
3192.07,0.01986
3168.93,0.02162
3145.78,0.02099
3122.64,0.02126
3099.49,0.02082
3076.35,0.02082
3053.2,0.02106
3030.06,0.01984
3006.91,0.02039
2983.77,0.01969
2960.62,0.01954
2937.48,0.01927
2914.33,0.02031
2891.19,0.02073
2868.04,0.01977
2844.9,0.02059
2821.75,0.02106
2798.61,0.02114
2775.46,0.02107
2752.32,0.02113
2729.17,0.02134
2706.03,0.02145
2682.88,0.02147
2659.74,0.02095
2636.59,0.02113
2613.45,0.02110
2590.3,0.02126
2567.16,0.02106
2544.02,0.02092
2520.87,0.02150
2497.73,0.02125
2474.58,0.02125
2451.44,0.02139
2428.29,0.02140
2405.15,0.02094
2382,0.02112
2358.86,0.02181
2335.71,0.02160
2312.57,0.02105
2289.42,0.02103
2266.28,0.02101
2243.13,0.02091
2219.99,0.02088
2196.84,0.02113
2173.7,0.02094
2150.55,0.02089
2127.41,0.02065
2104.26,0.02063
2081.12,0.02095
2057.97,0.02056
2034.83,0.02096
2011.68,0.02081
1988.54,0.02063
1965.39,0.02065
1942.25,0.02082
1919.1,0.02103
1895.96,0.02075
1872.81,0.02037
1849.67,0.02032
1826.52,0.02019
1803.38,0.01944
1780.23,0.01914
1757.09,0.01755
1733.94,0.01940
1710.8,0.02049
1687.65,0.01914
1664.51,0.01849
1641.36,0.01811
1618.22,0.01898
1595.07,0.01880
1571.93,0.01845
1548.78,0.01840
1525.64,0.01841
1502.49,0.01839
1479.35,0.01806
1456.2,0.01838
1433.06,0.01879
1409.91,0.01816
1386.77,0.01810
1363.62,0.01839
1340.48,0.01778
1317.33,0.01706
1294.19,0.01771
1271.04,0.01937
1247.9,0.01997
1224.75,0.01909
1201.61,0.01860
1178.46,0.01768
1155.32,0.01727
1132.17,0.01755
1109.03,0.01885
1085.88,0.01802
1062.74,0.01966
1039.59,0.01912
1016.45,0.01919
993.304,0.02087
970.159,0.02065
947.014,0.01969
923.869,0.01930
900.724,0.01890
877.579,0.02016
854.434,0.01868
831.289,0.01878
808.144,0.01852
784.999,0.01927
761.854,0.01817
738.709,0.01855
715.565,0.01786
692.42,0.01821
669.275,0.01857
646.13,0.01728
622.985,0.01528
599.84,0.01470