Folder: fsri_materials_database/01_Data/Thermoplastic_Helmet_Shell/STA/N2/10K_min

File: Thermoplastic_Helmet_Shell_STA_N2_10KData_250219_R1.csv
Temp./C,Time/min,DSC/(mW/mg),Mass loss/mg
35.0,0.0,0.56398,0.0140943
37.4,0.326152,0.609778,0.0122408
39.8,0.637934,0.641105,0.0137078
42.2,0.934899,0.667521,0.012835
44.6,1.22307,0.693637,0.0125728
47,1.50526,0.717714,0.0116784
49.4,1.77644,0.742336,0.0113942
51.8,2.04993,0.760591,0.0107237
54.2,2.31539,0.771863,0.0119715
56.6,2.57552,0.780455,0.0115829
59,2.83212,0.795054,0.00837481
61.4,3.08486,0.809222,0.00973336
63.8,3.33496,0.825613,0.010617
66.2,3.5816,0.834971,0.0106441
68.6,3.82782,0.845542,0.0106636
71,4.07306,0.859305,0.00934477
73.4,4.31672,0.876664,0.00950571
75.8,4.55833,0.893198,0.00788887
78.2,4.79832,0.916176,0.00789534
80.6,5.0386,0.924624,0.0105719
83,5.27685,0.927249,0.00921888
85.4,5.51244,0.945015,0.00923057
87.8,5.75198,0.958429,0.00924712
90.2,5.98674,0.962361,0.0115733
92.6,6.2209,0.973091,0.0105578
95,6.45481,0.984623,0.00811254
97.4,6.68722,0.99018,0.00923438
99.8,6.91849,0.995338,0.0105444
102.2,7.15054,1.00039,0.0105184
104.6,7.38025,1.00997,0.00779997
107,7.61078,1.01535,0.0078352
109.4,7.84156,1.02058,0.00782743
111.8,8.07223,1.03132,0.00845045
114.2,8.30281,1.03333,0.00911
116.6,8.53353,1.0366,0.00782426
119,8.7632,1.03546,0.00911988
121.4,8.9904,1.0271,0.0064796
123.8,9.22048,1.0205,0.00584641
126.2,9.45024,1.01574,0.00582848
128.6,9.67906,1.03068,0.0071398
131,9.90697,1.06822,0.00721478
133.4,10.136,1.10823,0.0071466
135.8,10.3658,1.13358,0.00746696
138.2,10.5938,1.17255,0.00647997
140.6,10.8215,1.22732,0.0038609
143,11.049,1.25254,0.00652557
145.4,11.2769,1.28316,0.00520255
147.8,11.5025,1.27417,0.00373962
150.2,11.7299,1.28069,0.0052161
152.6,11.9561,1.29002,0.00385
155,12.1829,1.29207,0.00149963
157.4,12.4083,1.29709,0.00384874
159.8,12.6345,1.2981,0.00385
162.2,12.861,1.30878,0.00253
164.6,13.0856,1.3163,0.00253023
167,13.313,1.31861,0.0025183
169.4,13.5385,1.32303,0.00121573
171.8,13.7649,1.32229,-9.99511e-05
174.2,13.9925,1.33124,0.000236429
176.6,14.2184,1.33623,0.00120861
179,14.4435,1.3331,-0.000689897
181.4,14.6706,1.34171,-0.000759929
183.8,14.8973,1.34429,-0.00208
186.2,15.1227,1.34848,-0.00141633
188.6,15.3479,1.36774,-0.00208364
191,15.5739,1.37214,-0.00274
193.4,15.799,1.37304,-0.00142838
195.8,16.0258,1.37161,-0.00241001
198.2,16.2508,1.37801,-0.00241342
200.6,16.4763,1.37577,-0.00373
203,16.7026,1.37602,-0.00339313
205.4,16.9284,1.38734,-0.00471968
207.8,17.1543,1.40102,-0.00442606
210.2,17.3805,1.39257,-0.00370605
212.6,17.6064,1.39545,-0.00438
215,17.833,1.40701,-0.00447098
217.4,18.0578,1.41147,-0.00537219
219.8,18.2856,1.41525,-0.00540921
222.2,18.5122,1.42384,-0.00438999
224.6,18.7389,1.42681,-0.00561326
227,18.9651,1.44158,-0.00513748
229.4,19.1915,1.44865,-0.0060335
231.8,19.4179,1.46326,-0.00479636
234.2,19.645,1.48412,-0.00557912
236.6,19.8709,1.51261,-0.00603156
239,20.0982,1.54339,-0.00669
241.4,20.3255,1.58792,-0.00702
243.8,20.554,1.66071,-0.00739317
246.2,20.7793,1.74645,-0.00699306
248.6,21.0096,1.88339,-0.00832602
251,21.2386,2.04014,-0.0087846
253.4,21.466,2.09734,-0.00745744
255.8,21.6925,1.90245,-0.00778999
258.2,21.9167,1.64024,-0.00713004
260.6,22.1409,1.4952,-0.00779
263,22.3677,1.44605,-0.00911009
265.4,22.595,1.42532,-0.00910999
267.8,22.8228,1.40794,-0.0090046
270.2,23.0501,1.41447,-0.0101
272.6,23.2772,1.41396,-0.00976977
275,23.5052,1.39922,-0.0123387
277.4,23.7306,1.39332,-0.011727
279.8,23.9599,1.39682,-0.01108
282.2,24.1874,1.38836,-0.0133898
284.6,24.4158,1.37482,-0.0120745
287,24.6431,1.37791,-0.0141959
289.4,24.8721,1.36862,-0.01416
291.8,25.0994,1.359,-0.0141779
294.2,25.3282,1.34805,-0.01416
296.6,25.5558,1.33758,-0.01482
299,25.7849,1.31489,-0.0135
301.4,26.0122,1.30821,-0.01581
303.8,26.2416,1.29273,-0.0171199
306.2,26.4701,1.27051,-0.01745
308.6,26.6993,1.24538,-0.0167968
311,26.928,1.23684,-0.0187734
313.4,27.1564,1.2148,-0.0200777
315.8,27.3848,1.19528,-0.0217295
318.2,27.6137,1.17377,-0.0230499
320.6,27.8413,1.13385,-0.02305
323,28.0707,1.12093,-0.0256797
325.4,28.3,1.08102,-0.0289099
327.8,28.5293,1.05415,-0.0322375
330.2,28.7589,1.02528,-0.0349899
332.6,28.9881,0.988267,-0.0361747
335,29.2173,0.962455,-0.0415182
337.4,29.4475,0.941055,-0.0453337
339.8,29.6778,0.926013,-0.0511998
342.2,29.9082,0.904573,-0.0547709
344.6,30.1383,0.893229,-0.0613741
347,30.3685,0.89239,-0.0670792
349.4,30.5992,0.886947,-0.0748538
351.8,30.829,0.888832,-0.0815394
354.2,31.0601,0.90101,-0.0893554
356.6,31.2914,0.922564,-0.0954827
359,31.5225,0.948494,-0.10495
361.4,31.754,0.96593,-0.113849
363.8,31.9866,0.983301,-0.124287
366.2,32.2179,1.01926,-0.132167
368.6,32.4504,1.05453,-0.142602
371,32.6819,1.08725,-0.153691
373.4,32.9154,1.1204,-0.163663
375.8,33.1473,1.15167,-0.174025
378.2,33.3786,1.15956,-0.186679
380.6,33.6116,1.18844,-0.200014
383,33.844,1.2082,-0.211987
385.4,34.0763,1.22504,-0.22812
387.8,34.3087,1.23036,-0.244211
390.2,34.5423,1.24485,-0.258717
392.6,34.7748,1.25201,-0.276372
395,35.0081,1.27473,-0.296155
397.4,35.2402,1.28811,-0.319057
399.8,35.4734,1.29596,-0.341613
402.2,35.7064,1.28436,-0.369865
404.6,35.9409,1.27743,-0.400827
407,36.1726,1.25861,-0.435341
409.4,36.4057,1.25919,-0.472148
411.8,36.6387,1.26449,-0.514681
414.2,36.8721,1.26451,-0.568489
416.6,37.106,1.27229,-0.62482
419,37.339,1.3009,-0.690647
421.4,37.5739,1.33453,-0.759742
423.8,37.8064,1.35271,-0.832178
426.2,38.0412,1.37874,-0.903897
428.6,38.2753,1.38155,-0.979458
431,38.5079,1.37643,-1.05366
433.4,38.7422,1.35659,-1.12511
435.8,38.9761,1.34499,-1.20083
438.2,39.2102,1.31664,-1.27253
440.6,39.444,1.29393,-1.34347
443,39.6784,1.24793,-1.4147
445.4,39.9142,1.22956,-1.4859
447.8,40.1478,1.19027,-1.55613
450.2,40.3829,1.18217,-1.62511
452.6,40.6181,1.17819,-1.69316
455,40.8543,1.19921,-1.7611
457.4,41.0888,1.2174,-1.82338
459.8,41.3246,1.20684,-1.88554
462.2,41.5594,1.21176,-1.94474
464.6,41.7954,1.19799,-1.99807
467,42.0304,1.17512,-2.05114
469.4,42.2656,1.148,-2.09645
471.8,42.5006,1.11252,-2.14007
474.2,42.7357,1.07468,-2.18081
476.6,42.9714,1.04059,-2.22244
479,43.2075,1.00962,-2.26138
481.4,43.4425,0.964065,-2.2995
483.8,43.6788,0.932143,-2.33623
486.2,43.915,0.898359,-2.37397
488.6,44.1515,0.882877,-2.41538
491,44.3879,0.866289,-2.45826
493.4,44.6228,0.855914,-2.50213
495.8,44.8606,0.844046,-2.55071
498.2,45.0976,0.836126,-2.60017
500.6,45.3336,0.811524,-2.6486
503,45.5695,0.803411,-2.70092
505.4,45.8059,0.769803,-2.75031
507.8,46.0424,0.741203,-2.79655
510.2,46.2802,0.707575,-2.84292
512.6,46.5173,0.677935,-2.88507
515,46.7538,0.639346,-2.92571
517.4,46.9883,0.608539,-2.96047
519.8,47.2279,0.543233,-2.9953
522.2,47.4651,0.477733,-3.02803
524.6,47.7008,0.410392,-3.05602
527,47.9381,0.32913,-3.08298
529.4,48.1748,0.237455,-3.10627
531.8,48.4114,0.166787,-3.13023
534.2,48.648,0.110995,-3.14729
536.6,48.8861,0.0609432,-3.16601
539,49.1241,0.0283612,-3.18151
541.4,49.3614,-0.00869018,-3.19453
543.8,49.5986,-0.0293437,-3.2066
546.2,49.8365,-0.0715815,-3.21989
548.6,50.0739,-0.0764352,-3.22903
551,50.3125,-0.0840266,-3.23825
553.4,50.55,-0.109296,-3.24486
555.8,50.7892,-0.137689,-3.25305
558.2,51.0273,-0.14711,-3.2602
560.6,51.267,-0.157932,-3.26563
563,51.505,-0.153189,-3.27252
565.4,51.7432,-0.157559,-3.27931
567.8,51.9831,-0.158339,-3.28376
570.2,52.2215,-0.162462,-3.28832
572.6,52.4598,-0.164647,-3.29367
575,52.6986,-0.158008,-3.29776
577.4,52.9383,-0.166274,-3.30292
579.8,53.1776,-0.17253,-3.30686
582.2,53.4168,-0.177193,-3.31082
584.6,53.6567,-0.177033,-3.31476
587,53.897,-0.182192,-3.31582
589.4,54.1361,-0.174669,-3.32069
591.8,54.3766,-0.18361,-3.32136
594.2,54.6148,-0.181538,-3.32531
596.6,54.8565,-0.183094,-3.32795
599,55.0951,-0.18686,-3.32992
601.4,55.3355,-0.186943,-3.33256
603.8,55.5746,-0.195376,-3.33571
606.2,55.8161,-0.203503,-3.33915
608.6,56.0553,-0.195284,-3.3398
611,56.2945,-0.200452,-3.34239
613.4,56.535,-0.193536,-3.34613
615.8,56.7755,-0.203043,-3.346
618.2,57.0159,-0.203861,-3.35065
620.6,57.2559,-0.201418,-3.35243
623,57.4962,-0.204273,-3.35375
625.4,57.7362,-0.20214,-3.35374
627.8,57.975,-0.201497,-3.35376
630.2,58.2161,-0.193177,-3.35638
632.6,58.4564,-0.201679,-3.35638
635,58.6967,-0.207205,-3.35836
637.4,58.9372,-0.206173,-3.36034
639.8,59.177,-0.202304,-3.36066
642.2,59.4187,-0.197722,-3.35916
644.6,59.6593,-0.20734,-3.36352
647,59.8996,-0.203094,-3.36486
649.4,60.141,-0.211617,-3.36451
651.8,60.3814,-0.220184,-3.36307
654.2,60.6221,-0.206283,-3.3645
656.6,60.8636,-0.210923,-3.36451
659,61.1045,-0.224332,-3.36601
661.4,61.3448,-0.232101,-3.36583
663.8,61.5854,-0.234978,-3.36736
666.2,61.8252,-0.251874,-3.36898
668.6,62.067,-0.24198,-3.36901
671,62.307,-0.247947,-3.36903
673.4,62.5488,-0.257984,-3.37032
675.8,62.7892,-0.275014,-3.37164
678.2,63.0301,-0.275234,-3.37378
680.6,63.2701,-0.286198,-3.37295
683,63.5129,-0.290142,-3.37303
685.4,63.7536,-0.301613,-3.37409
687.8,63.9942,-0.319881,-3.37463
690.2,64.2352,-0.316399,-3.37593
692.6,64.4766,-0.33411,-3.37593
695,64.718,-0.352952,-3.37682
697.4,64.9578,-0.369385,-3.37999
699.8,65.199,-0.375175,-3.37978
702.2,65.4401,-0.383856,-3.37999
704.6,65.6819,-0.39235,-3.3813
707,65.923,-0.403121,-3.38097
709.4,66.1652,-0.411231,-3.37966
711.8,66.4072,-0.42007,-3.38097
714.2,66.6487,-0.4111,-3.38186
716.6,66.8904,-0.444772,-3.3823
719,67.1321,-0.45417,-3.38263
721.4,67.3725,-0.478007,-3.38328
723.8,67.6152,-0.47956,-3.38525
726.2,67.8555,-0.482364,-3.3852
728.6,68.0992,-0.49484,-3.38258
731,68.3405,-0.512385,-3.38525
733.4,68.5818,-0.543278,-3.38657
735.8,68.8246,-0.551503,-3.38657
738.2,69.0663,-0.57831,-3.38789
740,69.2482,-0.585081,-3.38921

File: Thermoplastic_Helmet_Shell_STA_N2_10KData_250219_R2.csv
Temp./C,Time/min,DSC/(mW/mg),Mass loss/mg
35.0,0.0,0.451042,-0.0294169
37.4,0.322872,0.497369,-0.0296922
39.8,0.632904,0.529289,-0.0296413
42.2,0.927948,0.560809,-0.0293109
44.6,1.21759,0.594411,-0.0310629
47,1.49801,0.621135,-0.0319893
49.4,1.77531,0.627953,-0.0335
51.8,2.04113,0.640082,-0.0336785
54.2,2.30321,0.649457,-0.0350197
56.6,2.5684,0.653632,-0.0362991
59,2.82365,0.665287,-0.0363279
61.4,3.07852,0.684315,-0.0356856
63.8,3.32532,0.692766,-0.0383478
66.2,3.57569,0.711854,-0.0365908
68.6,3.82156,0.720741,-0.0364487
71,4.06512,0.731376,-0.0390689
73.4,4.30893,0.743901,-0.0377738
75.8,4.55269,0.743938,-0.0390832
78.2,4.79295,0.773457,-0.0390842
80.6,5.03291,0.789354,-0.0403433
83,5.27138,0.798092,-0.0416958
85.4,5.50977,0.809267,-0.04168
87.8,5.74577,0.809618,-0.0401809
90.2,5.98115,0.818922,-0.0401983
92.6,6.21464,0.821609,-0.0424789
95,6.44716,0.825141,-0.0425074
97.4,6.6773,0.835824,-0.0421114
99.8,6.91244,0.841414,-0.0407835
102.2,7.14286,0.847377,-0.0415006
104.6,7.3737,0.854727,-0.0415
107,7.60372,0.858737,-0.0423342
109.4,7.83407,0.869877,-0.0428264
111.8,8.06587,0.872618,-0.0415001
114.2,8.29455,0.878949,-0.0427307
116.6,8.52423,0.875155,-0.0428444
119,8.75451,0.874188,-0.0410994
121.4,8.98389,0.861228,-0.0431394
123.8,9.21203,0.858574,-0.0431403
126.2,9.44148,0.855302,-0.04315
128.6,9.67077,0.857495,-0.04314
131,9.90024,0.889803,-0.0431327
133.4,10.1285,0.926681,-0.0430609
135.8,10.3569,0.956728,-0.0448455
138.2,10.5845,0.987821,-0.0444685
140.6,10.8134,1.0336,-0.0454812
143,11.0409,1.07022,-0.0447846
145.4,11.2673,1.09946,-0.0444923
147.8,11.4951,1.10909,-0.0456854
150.2,11.7225,1.11967,-0.0457811
152.6,11.9495,1.11791,-0.0466717
155,12.1755,1.12974,-0.04589
157.4,12.3994,1.13449,-0.0478785
159.8,12.6286,1.14814,-0.0478603
162.2,12.8546,1.14859,-0.0463366
164.6,13.0806,1.155,-0.0475803
167,13.3062,1.14812,-0.0465412
169.4,13.5325,1.15508,-0.04786
171.8,13.7588,1.16785,-0.0491579
174.2,13.986,1.16701,-0.04885
176.6,14.211,1.17026,-0.0478705
179,14.4365,1.16534,-0.0491801
181.4,14.6627,1.18189,-0.0485178
183.8,14.8888,1.18165,-0.0494854
186.2,15.116,1.17849,-0.0495028
188.6,15.3417,1.18565,-0.0505002
191,15.5668,1.18658,-0.0502602
193.4,15.7931,1.18128,-0.0514823
195.8,16.0177,1.19837,-0.0528
198.2,16.2422,1.19176,-0.05182
200.6,16.4701,1.19642,-0.05314
203,16.6959,1.19838,-0.0528022
205.4,16.9228,1.20154,-0.0531381
207.8,17.1472,1.19752,-0.053432
210.2,17.3738,1.20285,-0.0541256
212.6,17.5994,1.20229,-0.05544
215,17.8259,1.20843,-0.0530372
217.4,18.0511,1.21049,-0.0528018
219.8,18.2787,1.21238,-0.0544464
222.2,18.503,1.21716,-0.0544499
224.6,18.7306,1.21114,-0.0561
227,18.9554,1.22531,-0.05511
229.4,19.1826,1.22966,-0.05478
231.8,19.4095,1.2527,-0.0561345
234.2,19.637,1.27968,-0.056096
236.6,19.864,1.29678,-0.0562483
239,20.0905,1.34043,-0.05741
241.4,20.3174,1.38644,-0.05873
243.8,20.5449,1.45666,-0.05873
246.2,20.7741,1.55437,-0.05873
248.6,21.0015,1.68589,-0.0587166
251,21.2303,1.82975,-0.0584098
253.4,21.4584,1.88099,-0.0572958
255.8,21.6841,1.67579,-0.0597199
258.2,21.9073,1.42099,-0.05972
260.6,22.1328,1.2777,-0.0596947
263,22.3604,1.23158,-0.0607105
265.4,22.5849,1.22459,-0.05939
267.8,22.8139,1.21512,-0.0584001
270.2,23.0406,1.21106,-0.0570775
272.6,23.2698,1.20806,-0.05873
275,23.4959,1.19737,-0.05873
277.4,23.7248,1.20386,-0.0597221
279.8,23.9522,1.18564,-0.0584002
282.2,24.1798,1.18699,-0.05972
284.6,24.4084,1.18099,-0.0597199
287,24.636,1.16879,-0.0584178
289.4,24.8643,1.16464,-0.0591483
291.8,25.0924,1.15008,-0.0617293
294.2,25.3205,1.15454,-0.0586218
296.6,25.5482,1.14153,-0.0627845
299,25.7771,1.13159,-0.0596001
301.4,26.0043,1.12415,-0.0631224
303.8,26.2332,1.10624,-0.0630312
306.2,26.4621,1.09928,-0.0627877
308.6,26.6916,1.08278,-0.0641101
311,26.9188,1.06307,-0.066741
313.4,27.1475,1.0308,-0.0676478
315.8,27.3768,0.999816,-0.070705
318.2,27.6054,0.980758,-0.0714094
320.6,27.834,0.94265,-0.0732727
323,28.0632,0.927627,-0.0745817
325.4,28.2915,0.883886,-0.0782571
327.8,28.5217,0.85612,-0.07992
330.2,28.7503,0.837978,-0.0824289
332.6,28.9808,0.811595,-0.0832211
335,29.2099,0.775983,-0.0871223
337.4,29.4392,0.749173,-0.0910034
339.8,29.6701,0.72979,-0.0950722
342.2,29.8999,0.726556,-0.099019
344.6,30.1312,0.707861,-0.104489
347,30.3619,0.716239,-0.11231
349.4,30.5913,0.715607,-0.115179
351.8,30.8229,0.731153,-0.122449
354.2,31.0542,0.732433,-0.129491
356.6,31.2855,0.748405,-0.136381
359,31.5171,0.767281,-0.144881
361.4,31.7483,0.798558,-0.153543
363.8,31.9793,0.832838,-0.160933
366.2,32.2115,0.855824,-0.170702
368.6,32.4435,0.882776,-0.179621
371,32.676,0.920197,-0.188198
373.4,32.9076,0.940927,-0.19861
375.8,33.14,0.967662,-0.209296
378.2,33.3724,0.987951,-0.219695
380.6,33.6044,1.00237,-0.232813
383,33.8378,1.025,-0.244266
385.4,34.0695,1.03697,-0.256471
387.8,34.302,1.05823,-0.270826
390.2,34.5343,1.06582,-0.286686
392.6,34.767,1.08635,-0.301523
395,34.9999,1.10223,-0.320456
397.4,35.2305,1.10708,-0.340134
399.8,35.4648,1.10533,-0.361906
402.2,35.6994,1.10554,-0.387977
404.6,35.9331,1.11044,-0.416133
407,36.1655,1.11857,-0.445264
409.4,36.4001,1.11306,-0.482715
411.8,36.6328,1.12358,-0.522413
414.2,36.8653,1.14742,-0.567118
416.6,37.0994,1.16283,-0.613129
419,37.3329,1.17677,-0.665399
421.4,37.5676,1.18526,-0.721833
423.8,37.8007,1.20895,-0.778732
426.2,38.0354,1.21454,-0.8385
428.6,38.2695,1.20734,-0.898095
431,38.5027,1.17934,-0.959511
433.4,38.7372,1.16011,-1.01947
435.8,38.9711,1.14584,-1.08272
438.2,39.2059,1.11173,-1.14414
440.6,39.4404,1.0629,-1.20368
443,39.6734,1.01509,-1.2662
445.4,39.9079,0.980088,-1.32932
447.8,40.1434,0.937774,-1.38909
450.2,40.3781,0.899335,-1.45144
452.6,40.6128,0.873491,-1.51202
455,40.8487,0.872376,-1.5745
457.4,41.0835,0.967692,-1.63819
459.8,41.3211,1.03499,-1.70391
462.2,41.5581,1.07184,-1.76775
464.6,41.794,1.10451,-1.82602
467,42.0287,1.11103,-1.88147
469.4,42.2645,1.09447,-1.9367
471.8,42.5005,1.08868,-1.98899
474.2,42.7351,1.0562,-2.04061
476.6,42.9705,1.01729,-2.09284
479,43.206,0.970991,-2.14137
481.4,43.4418,0.912646,-2.19368
483.8,43.6769,0.840068,-2.24374
486.2,43.9117,0.782017,-2.29456
488.6,44.1486,0.720969,-2.34409
491,44.3854,0.671737,-2.39655
493.4,44.6215,0.627624,-2.44932
495.8,44.8574,0.599392,-2.50259
498.2,45.0945,0.568789,-2.55891
500.6,45.3315,0.534875,-2.61006
503,45.5677,0.505352,-2.66155
505.4,45.8035,0.479185,-2.70972
507.8,46.0418,0.456213,-2.75533
510.2,46.2772,0.435543,-2.79809
512.6,46.5167,0.420016,-2.83597
515,46.7532,0.401329,-2.86993
517.4,46.9907,0.363084,-2.90227
519.8,47.2275,0.319626,-2.93254
522.2,47.4644,0.266237,-2.95791
524.6,47.7012,0.230234,-2.98262
527,47.9379,0.174001,-3.00423
529.4,48.1745,0.139469,-3.02481
531.8,48.4113,0.102084,-3.0424
534.2,48.6484,0.0665401,-3.05961
536.6,48.8858,0.0281109,-3.07318
539,49.1227,-0.0099515,-3.08437
541.4,49.3623,-0.0301336,-3.09962
543.8,49.5993,-0.10724,-3.10693
546.2,49.8384,-0.0787935,-3.11825
548.6,50.0761,-0.0682552,-3.12534
551,50.314,-0.0720172,-3.13531
553.4,50.553,-0.0866884,-3.14232
555.8,50.792,-0.0876695,-3.14969
558.2,51.0314,-0.0947609,-3.1557
560.6,51.2701,-0.112349,-3.16242
563,51.5085,-0.118414,-3.16635
565.4,51.7484,-0.123898,-3.17307
567.8,51.9861,-0.125117,-3.17984
570.2,52.225,-0.127755,-3.18271
572.6,52.4645,-0.124874,-3.18819
575,52.7033,-0.128154,-3.1927
577.4,52.9428,-0.12043,-3.19719
579.8,53.1806,-0.122071,-3.20073
582.2,53.422,-0.130668,-3.20466
584.6,53.6599,-0.133215,-3.20748
587,53.9007,-0.137129,-3.21272
589.4,54.139,-0.14327,-3.21403
591.8,54.3773,-0.154113,-3.21729
594.2,54.6179,-0.164447,-3.21993
596.6,54.8584,-0.179307,-3.22385
599,55.096,-0.193979,-3.22651
601.4,55.338,-0.212996,-3.22981
603.8,55.5774,-0.227879,-3.23012
606.2,55.8169,-0.244178,-3.23239
608.6,56.0581,-0.257782,-3.23507
611,56.2977,-0.264765,-3.23583
613.4,56.5358,-0.286296,-3.23739
615.8,56.7775,-0.293842,-3.23987
618.2,57.0165,-0.314639,-3.24166
620.6,57.2569,-0.321675,-3.24169
623,57.4967,-0.331321,-3.24364
625.4,57.7368,-0.338619,-3.24397
627.8,57.977,-0.354732,-3.24528
630.2,58.2169,-0.361457,-3.24792
632.6,58.4576,-0.363748,-3.24757
635,58.6978,-0.383181,-3.25053
637.4,58.9372,-0.400997,-3.25187
639.8,59.1783,-0.412977,-3.25188
642.2,59.4194,-0.42886,-3.25451
644.6,59.6587,-0.445112,-3.25314
647,59.8997,-0.474249,-3.25334
649.4,60.1373,-0.473738,-3.25432
651.8,60.3806,-0.475885,-3.25682
654.2,60.6206,-0.500789,-3.25551
656.6,60.8607,-0.504021,-3.25681
659,61.1004,-0.506954,-3.25678
661.4,61.3415,-0.514634,-3.25714
663.8,61.582,-0.531502,-3.26006
666.2,61.8226,-0.5409,-3.25717
668.6,62.0636,-0.556434,-3.25977
671,62.3038,-0.581728,-3.25976
673.4,62.545,-0.586839,-3.26109
675.8,62.7854,-0.612245,-3.2611
678.2,63.0268,-0.632851,-3.26241
680.6,63.2683,-0.653639,-3.26373
683,63.5088,-0.666099,-3.2651
685.4,63.7514,-0.679418,-3.26472
687.8,63.9927,-0.683403,-3.26636
690.2,64.2334,-0.700167,-3.26504
692.6,64.475,-0.722025,-3.26636
695,64.7159,-0.736573,-3.2658
697.4,64.9571,-0.757896,-3.26537
699.8,65.1949,-0.774585,-3.2667
702.2,65.4384,-0.791287,-3.268
704.6,65.6793,-0.802563,-3.26801
707,65.9206,-0.810722,-3.26867
709.4,66.1624,-0.832599,-3.27004
711.8,66.4048,-0.841902,-3.27009
714.2,66.6451,-0.866524,-3.26928
716.6,66.8879,-0.884607,-3.27042
719,67.1308,-0.889319,-3.2701
721.4,67.3738,-0.920837,-3.27141
723.8,67.6151,-0.945221,-3.27143
726.2,67.8572,-0.955912,-3.27141
728.6,68.0985,-0.974149,-3.27306
731,68.3407,-0.988689,-3.27207
733.4,68.5823,-1.02662,-3.27339
735.8,68.8251,-1.04509,-3.27207
738.2,69.0674,-1.06711,-3.2734
740,69.2497,-1.09534,-3.27462