Folder: fsri_materials_database/01_Data/Thermoplastic_Helmet_Shell/STA/N2/10K_min (part 2)

File: Thermoplastic_Helmet_Shell_STA_N2_10KData_250220_R3.csv
Temp./C,Time/min,DSC/(mW/mg),Mass loss/mg
35.0,0.0,0.414148,0.0335059
37.4,0.325525,0.450011,0.0342827
39.8,0.636646,0.470893,0.0351189
42.2,0.934846,0.50136,0.0358431
44.6,1.2221,0.516317,0.0332464
47,1.50538,0.536103,0.0365316
49.4,1.779,0.554053,0.033714
51.8,2.04936,0.578152,0.0372353
54.2,2.31439,0.591404,0.0388602
56.6,2.5753,0.609307,0.0375385
59,2.83125,0.629986,0.0378767
61.4,3.08405,0.638158,0.0416112
63.8,3.33546,0.654415,0.0402974
66.2,3.58464,0.677304,0.0402655
68.6,3.83125,0.687101,0.0415758
71,4.07392,0.703326,0.0402883
73.4,4.31846,0.715536,0.040956
75.8,4.55691,0.719316,0.0437706
78.2,4.80101,0.735955,0.0429954
80.6,5.04135,0.74654,0.0429008
83,5.28183,0.757839,0.0417155
85.4,5.51813,0.772568,0.0419394
87.8,5.75508,0.781645,0.0442906
90.2,5.99089,0.78738,0.043189
92.6,6.22655,0.789206,0.0423569
95,6.45964,0.795041,0.0420328
97.4,6.69299,0.813094,0.042055
99.8,6.92439,0.835791,0.0433699
102.2,7.15704,0.838476,0.0423701
104.6,7.38619,0.855856,0.0449389
107,7.61933,0.87161,0.0465704
109.4,7.84972,0.876405,0.04589
111.8,8.07929,0.888848,0.0449197
114.2,8.31101,0.899127,0.0449185
116.6,8.54115,0.898443,0.043362
119,8.7713,0.908111,0.0473176
121.4,9.00143,0.918637,0.0463858
123.8,9.23084,0.937778,0.0486914
126.2,9.46021,0.940384,0.046
128.6,9.68978,0.944226,0.0473674
131,9.91667,0.950823,0.04666
133.4,10.1464,0.968782,0.0469719
135.8,10.3743,0.991211,0.0469203
138.2,10.603,1.02216,0.0497461
140.6,10.8293,1.05382,0.0486393
143,11.0572,1.08412,0.046
145.4,11.2838,1.09549,0.0472886
147.8,11.5105,1.09639,0.0486339
150.2,11.7375,1.1037,0.048624
152.6,11.9628,1.10017,0.0486398
155,12.19,1.1032,0.0496976
157.4,12.4172,1.11747,0.0486157
159.8,12.6423,1.11384,0.0486309
162.2,12.8691,1.11876,0.0485941
164.6,13.0943,1.11933,0.0499595
167,13.3211,1.1209,0.0499504
169.4,13.5452,1.12671,0.0509401
171.8,13.7723,1.12514,0.0525178
174.2,13.9994,1.13514,0.0510192
176.6,14.2252,1.12773,0.05028
179,14.4518,1.1375,0.0516261
181.4,14.6784,1.14062,0.0502819
183.8,14.9033,1.14435,0.0518229
186.2,15.1289,1.14608,0.0502813
188.6,15.3541,1.16045,0.0502799
191,15.5803,1.16608,0.0516327
193.4,15.8048,1.17276,0.0516001
195.8,16.0309,1.17322,0.0530178
198.2,16.256,1.17883,0.0532482
200.6,16.4818,1.18603,0.0522487
203,16.7078,1.18546,0.05159
205.4,16.9342,1.19553,0.0532458
207.8,17.1597,1.20145,0.0558798
210.2,17.3855,1.20415,0.0557277
212.6,17.6104,1.21296,0.0523628
215,17.8377,1.21208,0.0511987
217.4,18.0624,1.21762,0.0523594
219.8,18.2904,1.22374,0.0544192
222.2,18.5157,1.2361,0.0523667
224.6,18.7415,1.23716,0.0536775
227,18.9679,1.25903,0.0536895
229.4,19.1939,1.26189,0.0550159
231.8,19.4216,1.28684,0.0549986
234.2,19.6485,1.30936,0.05368
236.6,19.875,1.34071,0.05434
239,20.103,1.38818,0.0550072
241.4,20.3294,1.4442,0.0511798
243.8,20.5581,1.53931,0.05523
246.2,20.7851,1.64858,0.05654
248.6,21.0141,1.6828,0.053909
251,21.2389,1.58374,0.0538861
253.4,21.4637,1.42073,0.0551105
255.8,21.6901,1.26647,0.0524646
258.2,21.9155,1.21103,0.0554868
260.6,22.1412,1.19419,0.05643
263,22.3697,1.18419,0.0561
265.4,22.5959,1.19376,0.053477
267.8,22.8239,1.18191,0.0534692
270.2,23.0506,1.183,0.0547824
272.6,23.2786,1.17412,0.05478
275,23.5062,1.16079,0.0547801
277.4,23.7349,1.16669,0.0547792
279.8,23.9618,1.16036,0.05346
282.2,24.189,1.14808,0.0520178
284.6,24.4183,1.13315,0.0529457
287,24.6465,1.11624,0.0515907
289.4,24.8732,1.10123,0.0532399
291.8,25.1033,1.08842,0.0532483
294.2,25.3311,1.07869,0.0533522
296.6,25.559,1.07216,0.0502471
299,25.7876,1.0663,0.050136
301.4,26.0163,1.05125,0.0466672
303.8,26.2453,1.04343,0.0460009
306.2,26.4735,1.03338,0.046967
308.6,26.7029,1.01366,0.0473201
311,26.9317,0.989886,0.0460003
313.4,27.1596,0.977094,0.0459995
315.8,27.3891,0.948874,0.0420059
318.2,27.6192,0.942883,0.0401019
320.6,27.8477,0.926208,0.03579
323,28.0776,0.892293,0.03447
325.4,28.3069,0.87895,0.03447
327.8,28.5365,0.839613,0.0313129
330.2,28.7664,0.822577,0.0278958
332.6,28.9953,0.797248,0.0232635
335,29.2251,0.779697,0.0222821
337.4,29.4537,0.752863,0.016506
339.8,29.6842,0.741919,0.0120872
342.2,29.9133,0.720207,0.0101107
344.6,30.1433,0.713409,0.00435962
347,30.3733,0.711824,-0.000836253
349.4,30.6038,0.705344,-0.0118373
351.8,30.8352,0.71001,-0.0172301
354.2,31.0658,0.714435,-0.0235604
356.6,31.2964,0.727574,-0.0324909
359,31.5279,0.75649,-0.0405862
361.4,31.7593,0.776963,-0.0475554
363.8,31.9907,0.798204,-0.0569064
366.2,32.2221,0.82518,-0.0688748
368.6,32.4541,0.856091,-0.078927
371,32.6865,0.879564,-0.0875345
373.4,32.919,0.906435,-0.0985318
375.8,33.1502,0.940752,-0.112007
378.2,33.3819,0.954385,-0.121363
380.6,33.6154,0.989916,-0.134861
383,33.8472,1.00095,-0.14828
385.4,34.0797,1.02298,-0.161623
387.8,34.313,1.01763,-0.174528
390.2,34.5445,1.02606,-0.191237
392.6,34.7785,1.03338,-0.208412
395,35.012,1.04029,-0.228982
397.4,35.2438,1.05337,-0.251284
399.8,35.4778,1.05767,-0.273534
402.2,35.7109,1.05039,-0.300349
404.6,35.9435,1.04949,-0.329786
407,36.1765,1.04889,-0.366632
409.4,36.4095,1.05341,-0.401502
411.8,36.6442,1.05214,-0.443109
414.2,36.8775,1.06109,-0.489404
416.6,37.1106,1.05769,-0.54054
419,37.345,1.08472,-0.59414
421.4,37.5778,1.09476,-0.652296
423.8,37.8121,1.10053,-0.711775
426.2,38.0464,1.09849,-0.77868
428.6,38.2802,1.08258,-0.843724
431,38.5136,1.06679,-0.904256
433.4,38.7476,1.04167,-0.970596
435.8,38.9808,1.02395,-1.03284
438.2,39.2144,0.989907,-1.10132
440.6,39.4472,0.949335,-1.16739
443,39.6809,0.911549,-1.2317
445.4,39.9142,0.884719,-1.29983
447.8,40.1492,0.87465,-1.36874
450.2,40.3836,0.869278,-1.43739
452.6,40.6184,0.874441,-1.50798
455,40.8553,0.960721,-1.57987
457.4,41.0902,1.00341,-1.64961
459.8,41.327,1.03531,-1.71251
462.2,41.5629,1.07831,-1.77482
464.6,41.7988,1.08633,-1.83999
467,42.0346,1.06653,-1.90167
469.4,42.2704,1.03836,-1.95747
471.8,42.5045,0.989714,-2.00609
474.2,42.7412,0.927365,-2.05871
476.6,42.9774,0.865004,-2.1068
479,43.2124,0.792292,-2.15784
481.4,43.4483,0.738416,-2.20232
483.8,43.6835,0.694025,-2.24835
486.2,43.9188,0.650983,-2.29513
488.6,44.1553,0.60336,-2.3428
491,44.39,0.57146,-2.39106
493.4,44.6259,0.552559,-2.43975
495.8,44.8617,0.52877,-2.49066
498.2,45.0982,0.501375,-2.53497
500.6,45.3325,0.484252,-2.58162
503,45.5706,0.457871,-2.62538
505.4,45.8078,0.429125,-2.66318
507.8,46.0442,0.413997,-2.70152
510.2,46.2818,0.387503,-2.73314
512.6,46.5184,0.360424,-2.76339
515,46.7563,0.338232,-2.7967
517.4,46.9934,0.280118,-2.82327
519.8,47.23,0.241234,-2.84863
522.2,47.4666,0.180334,-2.87163
524.6,47.7033,0.122569,-2.89864
527,47.9401,0.0694904,-2.9191
529.4,48.1767,-0.0177456,-2.93221
531.8,48.4137,-0.0432896,-2.95547
534.2,48.6519,-0.0921401,-2.96799
536.6,48.889,-0.109972,-2.97991
539,49.1258,-0.141023,-2.99212
541.4,49.3638,-0.159144,-3.00451
543.8,49.6016,-0.165305,-3.01586
546.2,49.8387,-0.182284,-3.0249
548.6,50.0775,-0.198981,-3.03404
551,50.3152,-0.214222,-3.04275
553.4,50.5531,-0.226757,-3.04965
555.8,50.791,-0.246571,-3.05718
558.2,51.0296,-0.255861,-3.06019
560.6,51.2676,-0.259397,-3.07019
563,51.5065,-0.25995,-3.07361
565.4,51.7447,-0.265221,-3.08047
567.8,51.9832,-0.267953,-3.08864
570.2,52.2226,-0.273254,-3.08842
572.6,52.4608,-0.262741,-3.0928
575,52.6998,-0.264599,-3.10048
577.4,52.9391,-0.255809,-3.10466
579.8,53.1784,-0.259445,-3.10775
582.2,53.4159,-0.260236,-3.11035
584.6,53.6562,-0.268776,-3.11141
587,53.8947,-0.255402,-3.11695
589.4,54.1337,-0.270053,-3.11958
591.8,54.3733,-0.264669,-3.11854
594.2,54.6117,-0.279442,-3.12528
596.6,54.8523,-0.28584,-3.1287
599,55.0904,-0.291998,-3.12734
601.4,55.3307,-0.305779,-3.13396
603.8,55.5706,-0.30077,-3.13418
606.2,55.8104,-0.310037,-3.13583
608.6,56.0505,-0.303762,-3.13715
611,56.2906,-0.306457,-3.13904
613.4,56.5314,-0.301681,-3.14198
615.8,56.7718,-0.293476,-3.14056
618.2,57.0126,-0.285028,-3.1429
620.6,57.2531,-0.2875,-3.1489
623,57.492,-0.293427,-3.14663
625.4,57.7328,-0.290352,-3.14791
627.8,57.9725,-0.284081,-3.15054
630.2,58.2123,-0.27912,-3.1526
632.6,58.4531,-0.276663,-3.15449
635,58.6924,-0.279933,-3.1492
637.4,58.9336,-0.282676,-3.15559
639.8,59.1748,-0.276607,-3.15506
642.2,59.4138,-0.285566,-3.15996
644.6,59.6524,-0.280844,-3.15854
647,59.8952,-0.272035,-3.16009
649.4,60.1349,-0.274188,-3.15867
651.8,60.3767,-0.266313,-3.16131
654.2,60.6162,-0.276056,-3.16554
656.6,60.8571,-0.273739,-3.16071
659,61.0971,-0.264225,-3.16384
661.4,61.3384,-0.271097,-3.16856
663.8,61.5791,-0.257155,-3.16658
666.2,61.8188,-0.259046,-3.16834
668.6,62.0604,-0.264122,-3.16843
671,62.3006,-0.25639,-3.16734
673.4,62.5423,-0.276374,-3.17267
675.8,62.7828,-0.286613,-3.16997
678.2,63.023,-0.278241,-3.17393
680.6,63.2639,-0.282261,-3.17328
683,63.5047,-0.280099,-3.17524
685.4,63.7458,-0.264325,-3.1748
687.8,63.987,-0.263505,-3.17481
690.2,64.2275,-0.258171,-3.17481
692.6,64.4683,-0.272632,-3.17747
695,64.7091,-0.285578,-3.17744
697.4,64.9497,-0.280138,-3.17877
699.8,65.1907,-0.284332,-3.17843
702.2,65.4313,-0.294335,-3.18007
704.6,65.6739,-0.292178,-3.17932
707,65.9147,-0.297575,-3.184
709.4,66.1558,-0.304134,-3.18007
711.8,66.3982,-0.298711,-3.18216
714.2,66.6395,-0.304898,-3.18495
716.6,66.8821,-0.317646,-3.18392
719,67.1243,-0.333133,-3.18568
721.4,67.3647,-0.344053,-3.18568
723.8,67.6061,-0.360525,-3.18568
726.2,67.8476,-0.370246,-3.18436
728.6,68.0893,-0.397405,-3.18603
731,68.3287,-0.402578,-3.1868
733.4,68.5714,-0.424446,-3.18528
735.8,68.8154,-0.440004,-3.18858
738.2,69.0568,-0.447043,-3.19705
740,69.2396,-0.455053,-3.19246