Folder: fsri_materials_database/01_Data/Thermoplastic_Helmet_Shell/STA/N2/30K_min

File: Thermoplastic_Helmet_Shell_STA_N2_30KData_250220_R1.csv
Temp./C,Time/min,DSC/(mW/mg),Mass loss/mg
35.0,0.0,0.750743,-0.00600698
37.4,0.154421,0.884556,-0.000627574
39.8,0.292512,1.00246,-0.00625998
42.2,0.422658,1.0959,-0.00343628
44.6,0.543243,1.17653,-0.00175688
47,0.658772,1.25078,0.000263608
49.4,0.770358,1.31421,-0.00748903
51.8,0.878291,1.36193,-0.0111287
54.2,0.983931,1.41727,-0.00781587
56.6,1.08666,1.46726,-0.00284832
59,1.18695,1.51565,0.00345573
61.4,1.28605,1.56269,0.000379176
63.8,1.38334,1.59817,-0.00263146
66.2,1.47816,1.64173,-0.00341326
68.6,1.57297,1.67346,-0.00501878
71,1.66668,1.72005,-0.00679723
73.4,1.75912,1.75425,-0.0061482
75.8,1.85111,1.79238,-0.00909179
78.2,1.94103,1.82881,-0.00666336
80.6,2.03176,1.87318,-0.0102985
83,2.12128,1.91441,-0.00774936
85.4,2.20938,1.9683,-0.00427522
87.8,2.29664,2.01242,-0.00552795
90.2,2.38319,2.07452,-0.00334968
92.6,2.46859,2.11629,-0.00591995
95,2.55352,2.14655,-0.006364
97.4,2.63847,2.1943,-0.00463574
99.8,2.72208,2.2378,-0.00294819
102.2,2.80499,2.26956,-0.00284871
104.6,2.8879,2.30011,-0.00152867
107,2.97017,2.335,-0.000210492
109.4,3.05207,2.36972,-0.00276712
111.8,3.13285,2.40255,-0.00456925
114.2,3.2159,2.43102,-0.00555079
116.6,3.29641,2.47503,-0.00465391
119,3.3773,2.50556,-0.0041541
121.4,3.45767,2.53098,-0.00695242
123.8,3.53758,2.55597,-0.00878549
126.2,3.61688,2.59044,-0.00659436
128.6,3.69583,2.632,-0.00226348
131,3.77435,2.67244,-0.0036188
133.4,3.85288,2.70102,-0.00496449
135.8,3.93098,2.7464,-0.0075603
138.2,4.00848,2.79463,-0.0088772
140.6,4.08558,2.86187,-0.0101918
143,4.16292,2.95483,-0.00878814
145.4,4.23883,3.0505,-0.00746623
147.8,4.31562,3.10876,-0.00745919
150.2,4.3912,3.1554,-0.00638698
152.6,4.46694,3.16367,-0.00251337
155,4.54219,3.18638,-0.00350986
157.4,4.61741,3.21222,-0.0018162
159.8,4.69259,3.23138,-0.00178718
162.2,4.76732,3.24458,-0.00042913
164.6,4.84229,3.26893,-0.000445657
167,4.91653,3.28878,-0.000424988
169.4,4.99149,3.30007,-0.00659228
171.8,5.06548,3.33565,-0.00487385
174.2,5.13923,3.35982,-0.00322385
176.6,5.21333,3.37573,-0.00779657
179,5.28711,3.39716,-0.00649754
181.4,5.3607,3.42345,-0.0035694
183.8,5.43394,3.4451,-0.00361866
186.2,5.50682,3.46698,-0.000908927
188.6,5.58006,3.48982,0.000315605
191,5.65297,3.51075,-0.002969
193.4,5.7253,3.53518,-0.00307848
195.8,5.79803,3.55793,-0.00042849
198.2,5.87043,3.5784,-0.00046695
200.6,5.94278,3.5984,-0.00305816
203,6.01543,3.62407,-0.00175014
205.4,6.08754,3.6394,-0.00283388
207.8,6.15941,3.67788,-0.00316767
210.2,6.23121,3.70438,-0.00536672
212.6,6.30329,3.71669,-0.00502714
215,6.37466,3.74552,-0.00373013
217.4,6.44699,3.7835,-0.0037298
219.8,6.51865,3.79737,-0.00276434
222.2,6.59052,3.83589,-0.00152769
224.6,6.66234,3.87005,-0.00141983
227,6.73395,3.91406,-0.00141637
229.4,6.80565,3.96421,-9.70866e-05
231.8,6.8772,4.00747,-0.00413221
234.2,6.94861,4.10147,-0.00430195
236.6,7.02084,4.20163,-0.00558889
239,7.0925,4.35705,-0.00428845
241.4,7.16474,4.54473,-0.00296015
243.8,7.23639,4.78549,-0.0029564
246.2,7.30738,4.95719,-0.00262553
248.6,7.37901,4.88134,-0.00394241
251,7.4491,4.55844,-0.00533573
253.4,7.51929,4.2512,-0.00524722
255.8,7.58941,4.06463,-0.00394638
258.2,7.66023,3.94266,-0.00318936
260.6,7.73097,3.85731,-0.00497718
263,7.80182,3.81872,-0.00591996
265.4,7.87246,3.80529,-0.00474466
267.8,7.94321,3.80132,-0.00401877
270.2,8.01418,3.7812,-0.0013621
272.6,8.08519,3.76485,-0.000697758
275,8.15599,3.75672,-0.00196999
277.4,8.22683,3.76033,-0.00196328
279.8,8.29757,3.74911,-0.000684757
282.2,8.36859,3.74658,0.000711992
284.6,8.43918,3.75144,-0.00209011
287,8.51051,3.74307,-0.00431757
289.4,8.5815,3.72128,-0.00404912
291.8,8.65221,3.71372,-0.00273081
294.2,8.72382,3.70874,-0.00405002
296.6,8.79466,3.70751,-0.00451431
299,8.86585,3.69392,-0.00581953
301.4,8.93702,3.6831,-0.00591977
303.8,9.00813,3.67528,-0.00446857
306.2,9.0792,3.65834,-0.00210409
308.6,9.15019,3.64652,-0.00185999
311,9.22142,3.62232,-0.00186051
313.4,9.29263,3.60629,-0.000876645
315.8,9.36371,3.57988,-0.00229766
318.2,9.43496,3.56032,-0.0060676
320.6,9.50619,3.53894,-0.00546159
323,9.57759,3.50253,-0.0033899
325.4,9.64874,3.46626,-0.00385999
327.8,9.72004,3.43675,-0.00473006
330.2,9.79128,3.39628,-0.00899471
332.6,9.86269,3.35649,-0.0126441
335,9.93421,3.30902,-0.0146926
337.4,10.0056,3.26562,-0.0153701
339.8,10.0769,3.20621,-0.0132029
342.2,10.1486,3.14354,-0.0118342
344.6,10.2201,3.0945,-0.0123938
347,10.2915,3.03296,-0.0144929
349.4,10.3632,2.98092,-0.0172708
351.8,10.435,2.92322,-0.0204322
354.2,10.5065,2.85855,-0.0225884
356.6,10.5786,2.7904,-0.0282366
359,10.6503,2.74178,-0.0300343
361.4,10.7218,2.6838,-0.0317497
363.8,10.7942,2.62471,-0.0349286
366.2,10.8662,2.58175,-0.038751
368.6,10.9382,2.54341,-0.0460628
371,11.0103,2.49847,-0.0518455
373.4,11.0825,2.48757,-0.0545068
375.8,11.1549,2.46542,-0.0586714
378.2,11.2272,2.47141,-0.0644389
380.6,11.2997,2.47162,-0.067962
383,11.3726,2.49697,-0.077254
385.4,11.4452,2.53075,-0.0816683
387.8,11.5178,2.58083,-0.088836
390.2,11.5909,2.61526,-0.0983332
392.6,11.6641,2.66627,-0.107657
395,11.7372,2.73465,-0.115547
397.4,11.8103,2.80018,-0.123963
399.8,11.8833,2.86027,-0.134965
402.2,11.9567,2.93513,-0.149713
404.6,12.0304,2.98502,-0.167742
407,12.1031,3.02033,-0.178587
409.4,12.177,3.09694,-0.18804
411.8,12.2506,3.13991,-0.203209
414.2,12.3242,3.20129,-0.213622
416.6,12.3979,3.26688,-0.231061
419,12.4717,3.2946,-0.252944
421.4,12.5453,3.31192,-0.270802
423.8,12.6189,3.32717,-0.294919
426.2,12.6926,3.32782,-0.319741
428.6,12.7663,3.31374,-0.345686
431,12.8399,3.25602,-0.377017
433.4,12.9125,2.77685,-0.407514
435.8,12.9858,2.56891,-0.444365
438.2,13.0591,2.43679,-0.482794
440.6,13.1327,2.2734,-0.528712
443,13.2064,2.05269,-0.575455
445.4,13.2792,1.7739,-0.626039
447.8,13.3529,1.57634,-0.67994
450.2,13.4266,1.40232,-0.73261
452.6,13.5009,1.26254,-0.792221
455,13.5745,1.11268,-0.853408
457.4,13.6482,0.952685,-0.918514
459.8,13.7223,0.804819,-0.986757
462.2,13.7967,0.702998,-1.05296
464.6,13.8708,0.611265,-1.12201
467,13.9454,0.546351,-1.1905
469.4,14.0209,0.753086,-1.26295
471.8,14.0977,1.34643,-1.34385
474.2,14.1741,1.88784,-1.43591
476.6,14.2503,2.13854,-1.52951
479,14.3255,2.22303,-1.61153
481.4,14.4009,2.28594,-1.68875
483.8,14.4763,2.35593,-1.76854
486.2,14.5515,2.38331,-1.84841
488.6,14.6268,2.35067,-1.92548
491,14.7013,2.23284,-2.00249
493.4,14.7761,2.03023,-2.08056
495.8,14.8506,1.78582,-2.15144
498.2,14.9252,1.48078,-2.22057
500.6,14.9997,1.16036,-2.28648
503,15.0737,0.833349,-2.34824
505.4,15.1483,0.492606,-2.41019
507.8,15.2225,0.218548,-2.46942
510.2,15.2976,-0.0182845,-2.52924
512.6,15.3723,-0.21534,-2.58072
515,15.4469,-0.366065,-2.62592
517.4,15.523,-0.450205,-2.66904
519.8,15.5985,-0.54601,-2.70805
522.2,15.6739,-0.575545,-2.74707
524.6,15.7499,-0.551412,-2.78205
527,15.8258,-0.619913,-2.81524
529.4,15.9013,-0.665836,-2.83644
531.8,15.9766,-0.731614,-2.85881
534.2,16.053,-0.791158,-2.87914
536.6,16.1292,-0.870427,-2.89631
539,16.2037,-1.37627,-2.91325
541.4,16.278,-1.89704,-2.9306
543.8,16.3534,-2.21731,-2.94421
546.2,16.429,-2.41606,-2.95483
548.6,16.5046,-2.56335,-2.97051
551,16.5806,-2.69637,-2.98056
553.4,16.6565,-2.78411,-2.9936
555.8,16.7325,-2.87176,-3.0072
558.2,16.8087,-2.95532,-3.01689
560.6,16.8852,-3.02609,-3.01802
563,16.9616,-3.08063,-3.02182
565.4,17.0372,-3.14365,-3.02975
567.8,17.1142,-3.19573,-3.04139
570.2,17.1909,-3.25356,-3.04559
572.6,17.2673,-3.30517,-3.05
575,17.3441,-3.35142,-3.05676
577.4,17.4206,-3.38459,-3.06135
579.8,17.4973,-3.41392,-3.0667
582.2,17.5741,-3.46808,-3.07969
584.6,17.6511,-3.50069,-3.09054
587,17.728,-3.52958,-3.09551
589.4,17.8054,-3.55112,-3.09784
591.8,17.8824,-3.57546,-3.0987
594.2,17.9589,-3.57957,-3.09915
596.6,18.0365,-3.59737,-3.10088
599,18.1135,-3.60728,-3.10297
601.4,18.1912,-3.62513,-3.10572
603.8,18.2681,-3.64458,-3.11262
606.2,18.3455,-3.6736,-3.11775
608.6,18.4229,-3.68208,-3.11978
611,18.5002,-3.69598,-3.12501
613.4,18.578,-3.71243,-3.12921
615.8,18.6556,-3.71779,-3.13016
618.2,18.733,-3.72732,-3.12769
620.6,18.8105,-3.74065,-3.12741
623,18.8875,-3.77271,-3.13108
625.4,18.9657,-3.81316,-3.13672
627.8,19.0432,-3.84387,-3.14111
630.2,19.1212,-3.87699,-3.14644
632.6,19.1985,-3.89831,-3.15192
635,19.2767,-3.90808,-3.15145
637.4,19.3545,-3.92337,-3.15147
639.8,19.4323,-3.95147,-3.15516
642.2,19.51,-3.97271,-3.15842
644.6,19.5881,-3.99481,-3.16109
647,19.6662,-4.01683,-3.16115
649.4,19.7437,-4.03046,-3.16031
651.8,19.8213,-4.04999,-3.15559
654.2,19.8993,-4.08885,-3.15282
656.6,19.977,-4.12529,-3.15587
659,20.0553,-4.15255,-3.16419
661.4,20.1332,-4.17968,-3.16635
663.8,20.211,-4.2047,-3.16504
666.2,20.2888,-4.25149,-3.16503
668.6,20.3662,-4.28627,-3.1668
671,20.4447,-4.32429,-3.17323
673.4,20.5225,-4.36834,-3.17101
675.8,20.6004,-4.40815,-3.16865
678.2,20.6777,-4.44509,-3.16814
680.6,20.7565,-4.48271,-3.17313
683,20.8348,-4.52864,-3.17282
685.4,20.9123,-4.57871,-3.16834
687.8,20.9898,-4.6136,-3.17292
690.2,21.0683,-4.66514,-3.17274
692.6,21.1467,-4.7161,-3.18105
695,21.2245,-4.75449,-3.18773
697.4,21.3029,-4.80975,-3.18139
699.8,21.3809,-4.85859,-3.17773
702.2,21.459,-4.92417,-3.17823
704.6,21.5362,-4.98322,-3.17889
707,21.6152,-5.04909,-3.18327
709.4,21.6932,-5.11763,-3.19192
711.8,21.7714,-5.20444,-3.18937
714.2,21.8497,-5.28044,-3.18129
716.6,21.9279,-5.36329,-3.18555
719,22.0059,-5.45669,-3.18609
721.4,22.0842,-5.53154,-3.18655
723.8,22.1626,-5.63326,-3.18922
726.2,22.2409,-5.73181,-3.18929
728.6,22.319,-5.83861,-3.18929
731,22.3974,-5.94508,-3.18887
733.4,22.476,-6.05618,-3.18764
735.8,22.5535,-6.17326,-3.18762
738.2,22.6325,-6.29248,-3.18896
740,22.6912,-6.38417,-3.18897

File: Thermoplastic_Helmet_Shell_STA_N2_30KData_250221_R2.csv
Temp./C,Time/min,DSC/(mW/mg),Mass loss/mg
35.0,0.0,0.84526,0.0114976
37.4,0.154656,1.01638,0.019963
39.8,0.291583,1.1441,0.0169475
42.2,0.418979,1.26048,0.0120674
44.6,0.540012,1.36093,0.0113416
47,0.655751,1.446,0.0175686
49.4,0.767037,1.53756,0.017208
51.8,0.873857,1.59857,0.0139657
54.2,0.978969,1.66647,0.0131028
56.6,1.08007,1.73553,0.0174301
59,1.18109,1.78751,0.0175424
61.4,1.27978,1.83983,0.0165809
63.8,1.37547,1.88736,0.0100286
66.2,1.47139,1.94274,0.0175396
68.6,1.56581,1.99625,0.0193938
71,1.65925,2.03501,0.0186915
73.4,1.75173,2.08368,0.012234
75.8,1.84257,2.13061,0.0133621
78.2,1.93434,2.17381,0.0207419
80.6,2.02347,2.22488,0.0173359
83,2.11272,2.27606,0.0158491
85.4,2.2011,2.3339,0.014134
87.8,2.28825,2.38744,0.0125648
90.2,2.37498,2.44708,0.0171091
92.6,2.46058,2.48542,0.0174356
95,2.54555,2.53915,0.018608
97.4,2.63014,2.5915,0.0216309
99.8,2.71381,2.62813,0.0192577
102.2,2.79712,2.67052,0.0191229
104.6,2.88002,2.72076,0.0175853
107,2.96227,2.76329,0.0190916
109.4,3.04444,2.79948,0.0201764
111.8,3.12617,2.83887,0.0171887
114.2,3.20747,2.87709,0.0136009
116.6,3.28799,2.91378,0.01262
119,3.36868,2.96235,0.0125591
121.4,3.44985,2.99843,0.0154814
123.8,3.52962,3.03616,0.0168
126.2,3.60938,3.09019,0.0168023
128.6,3.68796,3.13166,0.0170015
131,3.76673,3.17335,0.0167891
133.4,3.84501,3.2222,0.0140408
135.8,3.92285,3.27381,0.0134522
138.2,4.00048,3.34176,0.0171959
140.6,4.07748,3.43462,0.0223591
143,4.15484,3.553,0.0226533
145.4,4.23152,3.65468,0.0208029
147.8,4.30744,3.7092,0.017538
150.2,4.38343,3.75167,0.0172898
152.6,4.45904,3.77313,0.01724
155,4.53441,3.794,0.0159553
157.4,4.60945,3.8293,0.01593
159.8,4.68471,3.86326,0.0159497
162.2,4.75941,3.89831,0.01866
164.6,4.83412,3.91753,0.0183802
167,4.9083,3.94108,0.0152375
169.4,4.98238,3.96072,0.0131243
171.8,5.05742,4.0018,0.0222413
174.2,5.13158,4.02992,0.0223539
176.6,5.20541,4.05867,0.0213312
179,5.27927,4.09139,0.0228935
181.4,5.35294,4.11633,0.0195534
183.8,5.42617,4.14301,0.0170877
186.2,5.4992,4.17556,0.0141708
188.6,5.57221,4.20058,0.01417
191,5.64493,4.24155,0.0143402
193.4,5.71767,4.26549,0.0182548
195.8,5.78996,4.30151,0.0225023
198.2,5.86259,4.32916,0.0238333
200.6,5.935,4.36492,0.0238067
203,6.0072,4.39939,0.0225137
205.4,6.0788,4.43315,0.0220882
207.8,6.15151,4.46351,0.0211882
210.2,6.2236,4.48307,0.0198225
212.6,6.29593,4.51928,0.0198698
215,6.36754,4.55503,0.0212639
217.4,6.43924,4.59557,0.0210943
219.8,6.51126,4.63115,0.0203309
222.2,6.58283,4.66378,0.02032
224.6,6.655,4.7163,0.0189515
227,6.72635,4.76986,0.0190001
229.4,6.79829,4.83087,0.020263
231.8,6.86935,4.90987,0.0203269
234.2,6.94126,5.00829,0.0209829
236.6,7.01375,5.12688,0.019662
239,7.08538,5.29931,0.018226
241.4,7.15767,5.51284,0.01823
243.8,7.22996,5.76408,0.018195
246.2,7.3019,5.89737,0.0205328
248.6,7.37223,5.70436,0.0179133
251,7.44239,5.37655,0.0180126
253.4,7.51273,5.10851,0.0199579
255.8,7.58293,4.93521,0.0230532
258.2,7.6529,4.83058,0.0247033
260.6,7.72425,4.77127,0.0247043
263,7.79494,4.72506,0.0233839
265.4,7.86586,4.73004,0.0247087
267.8,7.93688,4.72023,0.02471
270.2,8.00713,4.69261,0.0247999
272.6,8.07794,4.69316,0.0233959
275,8.14966,4.67947,0.0207501
277.4,8.22032,4.66659,0.0207503
279.8,8.29152,4.68093,0.0181468
282.2,8.36213,4.68147,0.0195478
284.6,8.43343,4.67859,0.0236304
287,8.50428,4.67956,0.0215313
289.4,8.57522,4.67625,0.020082
291.8,8.64653,4.67547,0.0208526
294.2,8.71735,4.66667,0.0232857
296.6,8.78848,4.6639,0.0246076
299,8.85978,4.66057,0.0246022
301.4,8.93068,4.64881,0.0259271
303.8,9.00208,4.6446,0.024599
306.2,9.07327,4.64287,0.0232831
308.6,9.14397,4.61698,0.0232863
311,9.21532,4.6052,0.0222907
313.4,9.28624,4.5894,0.0236076
315.8,9.35769,4.56644,0.0210041
318.2,9.42887,4.54882,0.0224161
320.6,9.49978,4.52321,0.0208998
323,9.57124,4.50603,0.0173975
325.4,9.6426,4.47514,0.0218492
327.8,9.71396,4.4596,0.0249711
330.2,9.78542,4.43344,0.0206098
332.6,9.85691,4.37917,0.0131983
335,9.92823,4.33944,0.00983546
337.4,9.99989,4.29919,0.0187355
339.8,10.0715,4.23956,0.0188092
342.2,10.1424,4.20599,0.0161385
344.6,10.2143,4.14409,0.0135001
347,10.2861,4.1002,0.012177
349.4,10.3576,4.04393,0.00954562
351.8,10.4297,3.98054,0.00626813
354.2,10.5011,3.92184,0.00116677
356.6,10.5729,3.86638,-0.00201587
359,10.6449,3.80422,-0.00187251
361.4,10.7165,3.76087,-0.00401771
363.8,10.7885,3.67953,-0.0116417
366.2,10.8603,3.64219,-0.0189135
368.6,10.9327,3.60479,-0.0243022
371,11.0049,3.57746,-0.0276815
373.4,11.0776,3.56703,-0.0324643
375.8,11.1498,3.57393,-0.0361469
378.2,11.2228,3.58897,-0.045817
380.6,11.2952,3.63694,-0.0539834
383,11.3677,3.69636,-0.0644396
385.4,11.4409,3.76189,-0.0733017
387.8,11.5136,3.85302,-0.0780471
390.2,11.5867,3.90988,-0.0835493
392.6,11.6598,4.00172,-0.0917756
395,11.733,4.06737,-0.101087
397.4,11.8063,4.1322,-0.11377
399.8,11.8794,4.15933,-0.12443
402.2,11.9527,4.18358,-0.136614
404.6,12.0262,4.20736,-0.149573
407,12.0995,4.21116,-0.161878
409.4,12.1732,4.22979,-0.173328
411.8,12.2465,4.24723,-0.188583
414.2,12.3201,4.26678,-0.20789
416.6,12.3937,4.2994,-0.226952
419,12.4676,4.34002,-0.246468
421.4,12.5416,4.38022,-0.264882
423.8,12.6152,4.42439,-0.283428
426.2,12.6893,4.46378,-0.310151
428.6,12.7631,4.4834,-0.340323
431,12.837,4.49914,-0.373523
433.4,12.9106,4.49547,-0.408656
435.8,12.9846,4.42333,-0.441913
438.2,13.0585,4.39161,-0.478653
440.6,13.1326,4.41179,-0.518771
443,13.2069,4.43616,-0.559109
445.4,13.2809,4.44319,-0.603846
447.8,13.3552,4.46153,-0.655076
450.2,13.4292,4.45692,-0.708294
452.6,13.5038,4.43401,-0.764699
455,13.5779,4.38707,-0.817028
457.4,13.652,4.3083,-0.871441
459.8,13.7259,4.18205,-0.92958
462.2,13.7999,4.05005,-0.986024
464.6,13.874,3.88971,-1.04312
467,13.9483,3.73796,-1.09913
469.4,14.0223,3.52562,-1.15641
471.8,14.0963,3.31375,-1.2169
474.2,14.1699,3.00695,-1.27237
476.6,14.2442,2.77079,-1.32923
479,14.319,2.78136,-1.39035
481.4,14.3948,3.0328,-1.45433
483.8,14.4705,3.27067,-1.52012
486.2,14.5457,3.40269,-1.58948
488.6,14.6223,3.61076,-1.6534
491,14.6977,3.76971,-1.71653
493.4,14.7731,3.83886,-1.78249
495.8,14.8489,3.83484,-1.85127
498.2,14.9238,3.77295,-1.9174
500.6,14.9991,3.62764,-1.98842
503,15.074,3.43468,-2.05998
505.4,15.1485,3.19961,-2.13072
507.8,15.2233,2.91936,-2.19731
510.2,15.2979,2.61104,-2.2632
512.6,15.3725,2.31849,-2.31736
515,15.447,2.03222,-2.37888
517.4,15.5221,1.7764,-2.44654
519.8,15.5971,1.57302,-2.51427
522.2,15.6719,1.39461,-2.57266
524.6,15.7472,1.24221,-2.63046
527,15.8228,1.1222,-2.68718
529.4,15.898,0.990208,-2.7404
531.8,15.9737,0.893704,-2.78247
534.2,16.0497,0.806487,-2.82496
536.6,16.1255,0.703217,-2.85716
539,16.2011,0.62774,-2.88466
541.4,16.277,0.526089,-2.91505
543.8,16.3532,0.428039,-2.93462
546.2,16.4289,0.328748,-2.95558
548.6,16.5052,0.225707,-2.97243
551,16.5812,0.122155,-2.98742
553.4,16.6574,0.0358346,-3.00112
555.8,16.7336,-0.0358889,-3.01909
558.2,16.8102,-0.112185,-3.03297
560.6,16.8869,-0.152759,-3.04616
563,16.9633,-0.196597,-3.05432
565.4,17.0393,-0.232611,-3.06376
567.8,17.1165,-0.265586,-3.07071
570.2,17.1934,-0.30865,-3.07843
572.6,17.2703,-0.34167,-3.08778
575,17.3469,-0.404485,-3.09517
577.4,17.4239,-0.389381,-3.09951
579.8,17.501,-0.407436,-3.10415
582.2,17.578,-0.420218,-3.1103
584.6,17.6551,-0.450987,-3.11856
587,17.7323,-0.481093,-3.12406
589.4,17.8094,-0.492172,-3.13226
591.8,17.8866,-0.465562,-3.13856
594.2,17.9638,-0.493181,-3.14286
596.6,18.0412,-0.501247,-3.14588
599,18.1182,-0.508255,-3.15063
601.4,18.1959,-0.544593,-3.15394
603.8,18.2735,-0.605813,-3.15709
606.2,18.3507,-0.59855,-3.16314
608.6,18.4282,-0.6106,-3.16812
611,18.5056,-0.645676,-3.17102
613.4,18.5835,-0.636244,-3.17405
615.8,18.661,-0.648239,-3.17542
618.2,18.7387,-0.658113,-3.17586
620.6,18.8161,-0.668152,-3.17836
623,18.8933,-0.671806,-3.18423
625.4,18.9718,-0.683018,-3.18709
627.8,19.0497,-0.691803,-3.18767
630.2,19.1274,-0.702315,-3.1883
632.6,19.2052,-0.712006,-3.18738
635,19.2831,-0.718106,-3.18841
637.4,19.3608,-0.753902,-3.19038
639.8,19.439,-0.760126,-3.19248
642.2,19.5172,-0.778862,-3.1956
644.6,19.5942,-0.798925,-3.19711
647,19.6729,-0.815914,-3.19945
649.4,19.7506,-0.830216,-3.20171
651.8,19.8289,-0.850767,-3.2068
654.2,19.9068,-0.871161,-3.20776
656.6,19.9851,-0.907255,-3.20905
659,20.0629,-0.958104,-3.20907
661.4,20.1407,-0.998614,-3.21174
663.8,20.2192,-1.0307,-3.21505
666.2,20.2968,-1.06972,-3.20989
668.6,20.3751,-1.09009,-3.20724
671,20.4526,-1.11878,-3.20829
673.4,20.5314,-1.15592,-3.20944
675.8,20.6094,-1.18557,-3.21167
678.2,20.6877,-1.22598,-3.21662
680.6,20.7652,-1.26432,-3.21771
683,20.8438,-1.30252,-3.21663
685.4,20.9219,-1.34733,-3.21679
687.8,20.9996,-1.3857,-3.22146
690.2,21.0782,-1.41236,-3.21848
692.6,21.1565,-1.44776,-3.21707
695,21.2342,-1.47968,-3.21704
697.4,21.3129,-1.53512,-3.2218
699.8,21.3909,-1.56379,-3.22443
702.2,21.4692,-1.58685,-3.22443
704.6,21.5473,-1.63713,-3.22574
707,21.6254,-1.68982,-3.22706
709.4,21.7037,-1.72817,-3.22722
711.8,21.7818,-1.78156,-3.22888
714.2,21.8602,-1.84738,-3.22881
716.6,21.9382,-1.9107,-3.22879
719,22.0167,-1.96664,-3.22881
721.4,22.0946,-2.03218,-3.22749
723.8,22.1731,-2.10785,-3.22809
726.2,22.2513,-2.17613,-3.23013
728.6,22.3294,-2.26538,-3.23145
731,22.4077,-2.31694,-3.23306
733.4,22.486,-2.39405,-3.23712
735.8,22.5641,-2.47369,-3.23721
738.2,22.6424,-2.56074,-3.23327
740,22.7008,-2.63089,-3.23008