Folder: fsri_materials_database/01_Data/Helmet_Shield_Bracket/STA/N2/10K_min

File: Helmet_Shield_Bracket_STA_N2_10KData_250521_R1.csv
Temp./C,Time/min,DSC/(mW/mg),Mass loss/mg
40.0,0.0,0.889329,-0.0500838
42.6,0.347179,0.987077,-0.0509248
45.2,0.675933,1.07487,-0.0546344
47.8,0.996507,1.15415,-0.0536117
50.4,1.30563,1.21973,-0.0550791
53,1.60463,1.2919,-0.0566547
55.6,1.89956,1.35906,-0.0593008
58.2,2.18768,1.42856,-0.0592781
60.8,2.47056,1.49239,-0.0618159
63.4,2.74773,1.53811,-0.0631063
66,3.01904,1.58803,-0.0646024
68.6,3.29232,1.63171,-0.0671945
71.2,3.5609,1.67132,-0.0686148
73.8,3.82612,1.70841,-0.07158
76.4,4.09086,1.74767,-0.072813
79,4.3544,1.78483,-0.072991
81.6,4.61608,1.806,-0.0723374
84.2,4.87686,1.83748,-0.0763994
86.8,5.13448,1.85777,-0.0804158
89.4,5.39109,1.86585,-0.08101
92,5.64656,1.87112,-0.0810262
94.6,5.89943,1.86817,-0.08464
97.2,6.15091,1.86426,-0.0859432
99.8,6.40266,1.84985,-0.0866913
102.4,6.65344,1.83555,-0.0878334
105,6.90437,1.8413,-0.0882871
107.6,7.15319,1.83866,-0.0900003
110.2,7.40417,1.84129,-0.0912203
112.8,7.65435,1.84947,-0.08991
115.4,7.90304,1.84318,-0.0912346
118,8.15194,1.85544,-0.0938575
120.6,8.40135,1.86386,-0.0941661
123.2,8.65091,1.87294,-0.0942064
125.8,8.89885,1.88763,-0.09551
128.4,9.148,1.90144,-0.09518
131,9.39519,1.91672,-0.0951947
133.6,9.64279,1.92325,-0.0964907
136.2,9.88703,1.93788,-0.09781
138.8,10.1359,1.94927,-0.0989199
141.4,10.381,1.96364,-0.0976004
144,10.6271,1.99126,-0.09891
146.6,10.8715,2.00403,-0.09891
149.2,11.1165,2.02666,-0.0989167
151.8,11.3628,2.04657,-0.10154
154.4,11.6077,2.07139,-0.10155
157,11.8531,2.08225,-0.100231
159.6,12.0971,2.10225,-0.101875
162.2,12.3431,2.12209,-0.102211
164.8,12.5882,2.1401,-0.10352
167.4,12.8343,2.15418,-0.10484
170,13.0793,2.17269,-0.104842
172.6,13.3233,2.19426,-0.105752
175.2,13.5675,2.21586,-0.107146
177.8,13.8137,2.23027,-0.10846
180.4,14.0581,2.24098,-0.11011
183,14.3034,2.26489,-0.109941
185.6,14.5474,2.27639,-0.11252
188.2,14.7918,2.31178,-0.11024
190.8,15.0366,2.33219,-0.11121
193.4,15.2806,2.3465,-0.115161
196,15.5239,2.36133,-0.11253
198.6,15.769,2.37987,-0.116027
201.2,16.0148,2.41069,-0.116211
203.8,16.2577,2.43776,-0.112189
206.4,16.5042,2.45181,-0.11846
209,16.7478,2.48129,-0.11714
211.6,16.9927,2.50438,-0.118758
214.2,17.2377,2.52933,-0.11878
216.8,17.4811,2.54853,-0.11944
219.4,17.7235,2.56727,-0.118134
222,17.9716,2.59969,-0.120769
224.6,18.2167,2.66003,-0.11944
227.2,18.463,2.79913,-0.120769
229.8,18.7127,3.143,-0.121069
232.4,18.9645,3.66488,-0.120269
235,19.2136,4.05926,-0.12372
237.6,19.4647,4.46868,-0.123771
240.2,19.7183,5.03229,-0.1201
242.8,19.9684,5.51818,-0.12406
245.4,20.2048,4.54358,-0.124049
248,20.4322,3.02035,-0.124008
250.6,20.6712,2.61827,-0.124711
253.2,20.9157,2.55899,-0.12471
255.8,21.1612,2.53813,-0.123741
258.4,21.4081,2.54919,-0.12537
261,21.6525,2.55813,-0.126035
263.6,21.899,2.56976,-0.124382
266.2,22.145,2.58568,-0.126048
268.8,22.3912,2.59625,-0.124708
271.4,22.6359,2.61624,-0.12474
274,22.8829,2.64094,-0.125277
276.6,23.1296,2.67558,-0.12526
279.2,23.3761,2.70962,-0.124931
281.8,23.6234,2.76398,-0.1302
284.4,23.8702,2.79376,-0.13284
287,24.1197,2.86019,-0.135446
289.6,24.3666,2.91974,-0.136771
292.2,24.6148,2.99397,-0.139101
294.8,24.8629,3.0848,-0.142061
297.4,25.111,3.18406,-0.150346
300,25.3599,3.30554,-0.151972
302.6,25.6092,3.45526,-0.161364
305.2,25.8598,3.63841,-0.168749
307.8,26.1094,3.83523,-0.176154
310.4,26.3597,4.07668,-0.187943
313,26.6105,4.35448,-0.198467
315.6,26.8636,4.70053,-0.214579
318.2,27.1169,5.08146,-0.232641
320.8,27.371,5.51435,-0.253099
323.4,27.6244,5.96953,-0.275434
326,27.8787,6.32431,-0.305394
328.6,28.1244,6.07952,-0.332236
331.2,28.3585,4.73901,-0.356797
333.8,28.5941,3.57974,-0.375055
336.4,28.8377,3.16599,-0.388917
339,29.0847,3.0001,-0.397788
341.6,29.3335,2.91097,-0.404617
344.2,29.5818,2.85559,-0.410225
346.8,29.8316,2.81861,-0.419095
349.4,30.0822,2.80276,-0.42068
352,30.3315,2.80854,-0.426056
354.6,30.5812,2.8205,-0.431681
357.2,30.8341,2.84648,-0.43814
359.8,31.0842,2.87632,-0.441953
362.4,31.3347,2.92565,-0.447491
365,31.5865,2.96844,-0.454701
367.6,31.839,3.02806,-0.461543
370.2,32.0901,3.09176,-0.46995
372.8,32.3423,3.17189,-0.481878
375.4,32.5948,3.24912,-0.491968
378,32.8478,3.35978,-0.507398
380.6,33.1002,3.47984,-0.523069
383.2,33.354,3.61948,-0.543523
385.8,33.6072,3.74206,-0.564768
388.4,33.8614,3.939,-0.590598
391,34.1165,4.14599,-0.621105
393.6,34.3705,4.33239,-0.655224
396.2,34.6263,4.57344,-0.694898
398.8,34.8808,4.81003,-0.741753
401.4,35.1377,5.04576,-0.795941
404,35.393,5.29574,-0.856323
406.6,35.6489,5.51403,-0.926165
409.2,35.9042,5.78333,-1.00119
411.8,36.161,6.00944,-1.0894
414.4,36.4174,6.23996,-1.18323
417,36.6735,6.52092,-1.29247
419.6,36.9284,6.69878,-1.4038
422.2,37.1826,6.69352,-1.52482
424.8,37.4366,6.6847,-1.65453
427.4,37.6899,6.68292,-1.78682
430,37.9446,6.64585,-1.92809
432.6,38.1971,6.58111,-2.07337
435.2,38.4503,6.46311,-2.22344
437.8,38.7008,6.28332,-2.37639
440.4,38.9536,6.04052,-2.52783
443,39.2043,5.70573,-2.67407
445.6,39.4523,5.29625,-2.81542
448.2,39.7014,4.80852,-2.94915
450.8,39.9511,4.29099,-3.07527
453.4,40.1993,3.76211,-3.18557
456,40.4473,3.28851,-3.28367
458.6,40.6978,2.88156,-3.36922
461.2,40.9485,2.55835,-3.45054
463.8,41.1996,2.30103,-3.51621
466.4,41.4526,2.07403,-3.58116
469,41.7056,1.85853,-3.63721
471.6,41.9585,1.66736,-3.68278
474.2,42.2116,1.46699,-3.71668
476.8,42.4672,1.30582,-3.74822
479.4,42.7202,1.17393,-3.76607
482,42.975,1.08023,-3.77932
484.6,43.2291,1.01104,-3.78853
487.2,43.4867,0.964113,-3.79639
489.8,43.7421,0.932494,-3.8038
492.4,43.9996,0.91979,-3.8054
495,44.2576,0.902041,-3.80677
497.6,44.5137,0.894185,-3.80838
500.2,44.7702,0.88963,-3.80801
502.8,45.0262,0.87124,-3.81034
505.4,45.2831,0.867853,-3.81065
508,45.5396,0.863298,-3.8133
510.6,45.797,0.864347,-3.81462
513.2,46.0548,0.855439,-3.8133
515.8,46.3103,0.844141,-3.81594
518.4,46.57,0.844723,-3.81556
521,46.8289,0.837364,-3.81461
523.6,47.0847,0.844386,-3.81724
526.2,47.3455,0.844441,-3.81723
528.8,47.6039,0.839877,-3.81523
531.4,47.8621,0.829983,-3.81659
534,48.1194,0.82592,-3.81726
536.6,48.377,0.820489,-3.81909
539.2,48.6352,0.802869,-3.81956
541.8,48.8934,0.807425,-3.81725
544.4,49.1522,0.800889,-3.81601
547,49.4111,0.783912,-3.81956
549.6,49.6699,0.785339,-3.81799
552.2,49.9288,0.761937,-3.81726
554.8,50.1877,0.764324,-3.8212
557.4,50.4464,0.756137,-3.81956
560,50.705,0.731935,-3.81824
562.6,50.9646,0.727866,-3.81746
565.2,51.2244,0.715929,-3.81953
567.8,51.484,0.701252,-3.81691
570.4,51.7432,0.685484,-3.81999
573,52.0017,0.680779,-3.81957
575.6,52.2618,0.67364,-3.81963
578.2,52.5218,0.666443,-3.82086
580.8,52.7825,0.661122,-3.81883
583.4,53.0409,0.64788,-3.82042
586,53.301,0.642757,-3.8175
588.6,53.5607,0.638457,-3.81934
591.2,53.8209,0.635582,-3.81802
593.8,54.0816,0.634418,-3.82
596.4,54.3415,0.624372,-3.81976
599,54.6013,0.627103,-3.81715
601.6,54.8616,0.610251,-3.81978
604.2,55.1225,0.601203,-3.81705
606.8,55.3827,0.590806,-3.81846
609.4,55.6439,0.588976,-3.81977
612,55.9035,0.586733,-3.81978
614.6,56.1638,0.587498,-3.82491
617.2,56.4254,0.581065,-3.81769
619.8,56.6858,0.574892,-3.81934
622.4,56.9467,0.564868,-3.81802
625,57.2083,0.561542,-3.82033
627.6,57.4695,0.555823,-3.82052
630.2,57.7313,0.553294,-3.81967
632.8,57.9924,0.550359,-3.81999
635.4,58.2534,0.546152,-3.82114
638,58.5152,0.541851,-3.82
640.6,58.7767,0.544522,-3.82263
643.2,59.0381,0.536699,-3.82132
645.8,59.2995,0.535749,-3.82264
648.4,59.5605,0.52812,-3.82229
651,59.8202,0.524593,-3.82133
653.6,60.0829,0.516736,-3.82132
656.2,60.3447,0.499255,-3.82277
658.8,60.605,0.49311,-3.82104
661.4,60.8672,0.480596,-3.82134
664,61.129,0.479106,-3.82284
666.6,61.3881,0.472182,-3.82099
669.2,61.6518,0.466087,-3.82361
671.8,61.9131,0.447929,-3.82098
674.4,62.1748,0.44102,-3.82362
677,62.4377,0.430665,-3.82362
679.6,62.6986,0.418157,-3.8223
682.2,62.9607,0.41991,-3.82124
684.8,63.2226,0.405779,-3.82331
687.4,63.4853,0.398131,-3.82065
690,63.7453,0.392996,-3.82197
692.6,64.0076,0.373168,-3.82066
695.2,64.2708,0.364458,-3.82427
697.8,64.5326,0.362224,-3.8196
700.4,64.7946,0.352654,-3.82033
703,65.0551,0.346228,-3.82134
705.6,65.3188,0.339583,-3.82395
708.2,65.5824,0.328464,-3.82263
710.8,65.8465,0.323512,-3.82132
713.4,66.1084,0.309922,-3.82132
716,66.3728,0.299163,-3.82197
718.6,66.6358,0.2821,-3.82604
721.2,66.8997,0.288395,-3.82328
723.8,67.1622,0.266341,-3.81913
726.4,67.4258,0.25326,-3.82067
729,67.689,0.255398,-3.82948
731.6,67.9526,0.241796,-3.82406
734.2,68.2142,0.237278,-3.82286
736.8,68.4767,0.223089,-3.82648
739.4,68.7392,0.215454,-3.82395
742,69.0038,0.210375,-3.82362
744.6,69.2662,0.203395,-3.82522
747.2,69.5311,0.195194,-3.82385
749.8,69.7939,0.190315,-3.82626
752.4,70.058,0.187047,-3.82362
755,70.3225,0.183451,-3.82571
757.6,70.5867,0.173349,-3.82791
760.2,70.8505,0.153161,-3.8224
762.8,71.1152,0.113311,-3.8255
765.4,71.3787,0.080106,-3.82559
768,71.6434,0.042754,-3.82296
770.6,71.9088,0.0293017,-3.82558
773.2,72.1715,0.00963833,-3.82418
775.8,72.4361,0.00335091,-3.82467
778.4,72.7002,-0.00543766,-3.82527
781,72.9631,0.00613144,-3.82323
783.6,73.23,0.0112672,-3.8256
786.2,73.4938,0.0108174,-3.82428
788.8,73.7584,0.0151482,-3.82558
790,73.8814,0.0154614,-3.82423