Folder: fsri_materials_database/01_Data/Helmet_Shield_Bracket/STA/N2/30K_min

File: Helmet_Shield_Bracket_STA_N2_30KData_250520_R1.csv
Temp./C,Time/min,DSC/(mW/mg),Mass loss/mg
40.0,0.0,1.50954,-0.0133889
42.6,0.157208,1.79434,-0.0153264
45.2,0.300718,2.04151,-0.0158465
47.8,0.435294,2.27805,-0.0145294
50.4,0.561287,2.49138,-0.0156198
53,0.682498,2.69488,-0.0182715
55.6,0.798294,2.87314,-0.0160316
58.2,0.910992,3.06095,-0.0176934
60.8,1.02151,3.22746,-0.0194709
63.4,1.12893,3.38643,-0.0196308
66,1.23446,3.5254,-0.0218343
68.6,1.3386,3.66507,-0.0230843
71.2,1.44113,3.80503,-0.0245442
73.8,1.54256,3.92239,-0.026294
76.4,1.64303,4.05624,-0.0263353
79,1.74166,4.17909,-0.0278149
81.6,1.83986,4.29624,-0.0295342
84.2,1.93709,4.40128,-0.0299692
86.8,2.03219,4.51925,-0.0323437
89.4,2.12723,4.6195,-0.0336983
92,2.22056,4.72217,-0.034997
94.6,2.31354,4.79576,-0.0366028
97.2,2.40547,4.84934,-0.0387744
99.8,2.4961,4.9,-0.04051
102.4,2.58666,4.92995,-0.0418319
105,2.6763,4.95136,-0.0425549
107.6,2.76553,4.9641,-0.0438152
110.2,2.85449,4.99079,-0.0464182
112.8,2.94278,5.01146,-0.0464414
115.4,3.03046,5.02292,-0.049082
118,3.11831,5.06079,-0.0503898
120.6,3.20494,5.08403,-0.0503701
123.2,3.29167,5.10604,-0.0517107
125.8,3.37784,5.11738,-0.0543386
128.4,3.46232,5.14502,-0.0556545
131,3.54823,5.16874,-0.0566815
133.6,3.6329,5.1902,-0.0579597
136.2,3.7167,5.21515,-0.0569699
138.8,3.79987,5.22837,-0.058288
141.4,3.88355,5.26731,-0.0596103
144,3.9664,5.29307,-0.0601255
146.6,4.04877,5.31865,-0.0619187
149.2,4.13052,5.33459,-0.0619185
151.8,4.21251,5.35622,-0.0615901
154.4,4.2937,5.39681,-0.0619825
157,4.37484,5.42181,-0.0629
159.6,4.45599,5.45305,-0.0628979
162.2,4.53716,5.4913,-0.0631295
164.8,4.61759,5.52469,-0.065543
167.4,4.698,5.58458,-0.06554
170,4.77847,5.61418,-0.0655375
172.6,4.85875,5.65555,-0.0658695
175.2,4.93866,5.70161,-0.0671905
177.8,5.01874,5.74977,-0.0685005
180.4,5.09834,5.80259,-0.0685
183,5.17752,5.85226,-0.0698999
185.6,5.25685,5.89427,-0.0722428
188.2,5.33545,5.95461,-0.07213
190.8,5.41437,6.00061,-0.0721364
193.4,5.49308,6.05938,-0.0721753
196,5.57158,6.10525,-0.07344
198.6,5.64992,6.17749,-0.0733941
201.2,5.72745,6.23988,-0.0737716
203.8,5.80649,6.30964,-0.0739955
206.4,5.88456,6.38679,-0.0750861
209,5.96258,6.45277,-0.0764096
211.6,6.0405,6.53889,-0.0777207
214.2,6.11828,6.60033,-0.0790401
216.8,6.19591,6.67063,-0.0803608
219.4,6.27432,6.77244,-0.080007
222,6.35207,6.91149,-0.08136
224.6,6.42971,7.09807,-0.0824965
227.2,6.50931,7.54436,-0.0839826
229.8,6.5899,8.47165,-0.0840035
232.4,6.67149,9.61991,-0.08399
235,6.75282,10.8175,-0.0839899
237.6,6.83515,12.2116,-0.0853083
240.2,6.91813,13.7271,-0.0858812
242.8,6.99364,13.3312,-0.08662
245.4,7.06228,10.7344,-0.086503
248,7.13407,9.0823,-0.0875692
250.6,7.20731,8.0801,-0.0879398
253.2,7.28189,7.42824,-0.0884931
255.8,7.3571,7.0506,-0.0882827
258.4,7.43317,6.84325,-0.0895802
261,7.50913,6.6971,-0.0908758
263.6,7.5856,6.60213,-0.0909334
266.2,7.66239,6.5587,-0.0905641
268.8,7.73865,6.54,-0.0906567
271.4,7.81536,6.55301,-0.0918898
274,7.89198,6.55329,-0.0918905
276.6,7.96857,6.56143,-0.0932002
279.2,8.04545,6.55525,-0.0931965
281.8,8.1226,6.57825,-0.0932069
284.4,8.19949,6.60897,-0.0945319
287,8.27669,6.6425,-0.0951727
289.6,8.35372,6.7088,-0.095849
292.2,8.43057,6.77283,-0.0958496
294.8,8.50799,6.85534,-0.0970694
297.4,8.58531,6.92182,-0.0971617
300,8.66262,7.04684,-0.0987263
302.6,8.7401,7.16419,-0.100039
305.2,8.81752,7.31658,-0.103738
307.8,8.89506,7.49692,-0.105201
310.4,8.97287,7.71451,-0.108634
313,9.05104,7.98068,-0.11253
315.6,9.12933,8.29181,-0.117877
318.2,9.20745,8.64092,-0.124372
320.8,9.28616,9.03995,-0.131037
323.4,9.36496,9.51715,-0.13844
326,9.44458,10.0942,-0.148448
328.6,9.52398,10.777,-0.158308
331.2,9.60425,11.5936,-0.171001
333.8,9.68488,12.4978,-0.186673
336.4,9.76605,13.5461,-0.203776
339,9.84761,14.6469,-0.222968
341.6,9.92896,15.7035,-0.246125
344.2,10.0076,15.8835,-0.270937
346.8,10.08,14.1639,-0.293876
349.4,10.1504,11.8569,-0.309452
352,10.2229,10.1564,-0.32514
354.6,10.2968,9.05279,-0.339274
357.2,10.3721,8.3415,-0.34912
359.8,10.4485,7.89551,-0.358727
362.4,10.5253,7.60236,-0.368011
365,10.6029,7.39728,-0.376219
367.6,10.6802,7.26568,-0.383297
370.2,10.7585,7.19003,-0.392102
372.8,10.8367,7.14812,-0.396551
375.4,10.915,7.13245,-0.400839
378,10.9939,7.13255,-0.406516
380.6,11.0727,7.17831,-0.413145
383.2,11.1516,7.24785,-0.41827
385.8,11.2304,7.31908,-0.424237
388.4,11.3098,7.42075,-0.430071
391,11.3891,7.54551,-0.438406
393.6,11.4685,7.67852,-0.447579
396.2,11.5484,7.85656,-0.454912
398.8,11.6284,8.0431,-0.465184
401.4,11.7078,8.24189,-0.47789
404,11.7885,8.49358,-0.491485
406.6,11.8687,8.77939,-0.507405
409.2,11.9495,9.07671,-0.526207
411.8,12.0305,9.43269,-0.546101
414.4,12.1114,9.81618,-0.569138
417,12.1921,10.2399,-0.595582
419.6,12.2741,10.7261,-0.62731
422.2,12.3559,11.2696,-0.663328
424.8,12.4385,11.8294,-0.706437
427.4,12.5204,12.4081,-0.753892
430,12.6032,13.0617,-0.807781
432.6,12.6852,13.6667,-0.870031
435.2,12.768,14.3206,-0.939918
437.8,12.851,14.9429,-1.01866
440.4,12.9332,15.4875,-1.10469
443,13.0157,15.929,-1.19746
445.6,13.0976,16.2745,-1.29597
448.2,13.1783,16.5223,-1.4004
450.8,13.2607,16.7093,-1.51644
453.4,13.3425,16.8872,-1.63912
456,13.4242,17.0383,-1.76732
458.6,13.5055,17.1791,-1.90462
461.2,13.5869,17.2177,-2.0495
463.8,13.6677,17.1595,-2.19985
466.4,13.7483,16.9612,-2.35433
469,13.8287,16.6222,-2.51244
471.6,13.9081,16.0939,-2.66976
474.2,13.9866,15.291,-2.82585
476.8,14.0645,14.2464,-2.97685
479.4,14.1415,13.0019,-3.1186
482,14.218,11.5412,-3.24948
484.6,14.2939,9.91583,-3.36834
487.2,14.3695,8.23692,-3.47181
489.8,14.4457,6.64381,-3.55666
492.4,14.5222,5.24899,-3.62806
495,14.5996,4.08575,-3.6885
497.6,14.678,3.1533,-3.73573
500.2,14.757,2.42696,-3.76816
502.8,14.8367,1.88559,-3.7938
505.4,14.9175,1.48824,-3.81204
508,14.9984,1.21724,-3.82387
510.6,15.0798,1.0626,-3.82965
513.2,15.1615,0.946093,-3.83536
515.8,15.2436,0.871192,-3.8382
518.4,15.3259,0.839429,-3.84149
521,15.4085,0.802857,-3.84393
523.6,15.4912,0.776264,-3.84392
526.2,15.5739,0.746437,-3.84607
528.8,15.6566,0.745437,-3.84657
531.4,15.7394,0.718793,-3.84661
534,15.8224,0.712133,-3.84525
536.6,15.9052,0.694067,-3.84668
539.2,15.9886,0.673318,-3.84799
541.8,16.0714,0.668996,-3.84898
544.4,16.1547,0.657709,-3.84898
547,16.2375,0.645581,-3.84896
549.6,16.321,0.634389,-3.84766
552.2,16.4042,0.624654,-3.84898
554.8,16.4875,0.604607,-3.85071
557.4,16.571,0.588339,-3.85063
560,16.6545,0.571463,-3.85063
562.6,16.7378,0.564311,-3.85062
565.2,16.8212,0.539271,-3.85199
567.8,16.9051,0.518433,-3.85089
570.4,16.9882,0.497259,-3.85063
573,17.0717,0.48472,-3.85096
575.6,17.1555,0.461733,-3.85096
578.2,17.2392,0.461523,-3.85104
580.8,17.3228,0.450219,-3.85128
583.4,17.4063,0.443781,-3.85128
586,17.49,0.416024,-3.85095
588.6,17.5741,0.410547,-3.85227
591.2,17.6576,0.403232,-3.85227
593.8,17.7413,0.395847,-3.85227
596.4,17.8254,0.39275,-3.85359
599,17.909,0.381534,-3.8526
601.6,17.9931,0.371907,-3.85267
604.2,18.0769,0.363397,-3.85392
606.8,18.1611,0.368694,-3.85261
609.4,18.2451,0.345356,-3.85306
612,18.3292,0.342954,-3.85327
614.6,18.4129,0.33128,-3.85327
617.2,18.4977,0.321588,-3.85284
619.8,18.5819,0.329222,-3.85228
622.4,18.6662,0.320018,-3.85301
625,18.7508,0.306183,-3.85425
627.6,18.8351,0.296551,-3.85425
630.2,18.9198,0.291619,-3.85401
632.8,19.0038,0.275935,-3.8531
635.4,19.0886,0.268382,-3.85392
638,19.1727,0.257886,-3.85261
640.6,19.2578,0.252571,-3.85252
643.2,19.3424,0.247426,-3.85393
645.8,19.4268,0.242338,-3.85492
648.4,19.5119,0.226467,-3.85492
651,19.5964,0.220261,-3.85425
653.6,19.6813,0.214537,-3.85426
656.2,19.7659,0.207376,-3.85459
658.8,19.8515,0.199239,-3.8559
661.4,19.936,0.189046,-3.85594
664,20.02,0.188319,-3.85712
666.6,20.1059,0.180478,-3.85655
669.2,20.1908,0.18167,-3.85524
671.8,20.2759,0.177817,-3.85656
674.4,20.361,0.17244,-3.8572
677,20.4461,0.175484,-3.85792
679.6,20.5313,0.172554,-3.85678
682.2,20.6164,0.163904,-3.85678
684.8,20.7016,0.165577,-3.85611
687.4,20.7873,0.160209,-3.85639
690,20.8724,0.163893,-3.85743
692.6,20.9581,0.155653,-3.85612
695.2,21.0433,0.146151,-3.85612
697.8,21.1289,0.156428,-3.85746
700.4,21.2143,0.152181,-3.85711
703,21.3,0.156607,-3.85711
705.6,21.3853,0.158137,-3.85718
708.2,21.4711,0.157288,-3.85696
710.8,21.5567,0.158358,-3.85744
713.4,21.6424,0.15817,-3.85744
716,21.728,0.151392,-3.85874
718.6,21.8138,0.151993,-3.86007
721.2,21.8997,0.144087,-3.86007
723.8,21.986,0.148554,-3.86007
726.4,22.0718,0.14395,-3.85974
729,22.1579,0.146472,-3.86039
731.6,22.2437,0.145623,-3.86073
734.2,22.3298,0.153034,-3.86073
736.8,22.4163,0.15406,-3.86073
739.4,22.5022,0.154991,-3.86138
742,22.5886,0.167394,-3.86138
744.6,22.675,0.169511,-3.86204
747.2,22.7613,0.169486,-3.86073
749.8,22.8475,0.171524,-3.86139
752.4,22.9337,0.165215,-3.86278
755,23.0204,0.18079,-3.86139
757.6,23.1067,0.183481,-3.86139
760.2,23.1926,0.195033,-3.86272
762.8,23.2795,0.195939,-3.86271
765.4,23.3659,0.18343,-3.86273
768,23.4526,0.181705,-3.86392
770.6,23.5387,0.188371,-3.86258
773.2,23.6255,0.174682,-3.86133
775.8,23.7118,0.171321,-3.86293
778.4,23.7987,0.161124,-3.86505
781,23.8853,0.158463,-3.86552
783.6,23.9713,0.165229,-3.86333
786.2,24.0578,0.170583,-3.86205
788.8,24.1443,0.157515,-3.86212
790,24.1844,0.160551,-3.86238

File: Helmet_Shield_Bracket_STA_N2_30KData_250520_R2.csv
Temp./C,Time/min,DSC/(mW/mg),Mass loss/mg
40.0,0.0,1.51103,-0.0178959
42.6,0.159188,1.78677,-0.0193022
45.2,0.302436,2.03035,-0.0212058
47.8,0.435828,2.25973,-0.0221082
50.4,0.561371,2.46717,-0.0221633
53,0.684242,2.6695,-0.0228938
55.6,0.801171,2.8564,-0.0222039
58.2,0.91473,3.04053,-0.0235945
60.8,1.02525,3.2067,-0.0231782
63.4,1.1333,3.36307,-0.0256423
66,1.23861,3.51636,-0.0271503
68.6,1.3435,3.65011,-0.0275646
71.2,1.44507,3.79025,-0.0281482
73.8,1.54798,3.91951,-0.0301495
76.4,1.64837,4.04274,-0.0305805
79,1.7481,4.15173,-0.0323392
81.6,1.84623,4.2457,-0.0321116
84.2,1.94323,4.35411,-0.0349661
86.8,2.03928,4.45662,-0.0363597
89.4,2.13392,4.56904,-0.0377505
92,2.22751,4.66117,-0.0383901
94.6,2.32051,4.74905,-0.0407809
97.2,2.41228,4.80336,-0.0419401
99.8,2.50331,4.8539,-0.0432875
102.4,2.59326,4.86754,-0.0458743
105,2.68338,4.87638,-0.0486423
107.6,2.77246,4.89603,-0.0476448
110.2,2.86025,4.90826,-0.0486809
112.8,2.94956,4.92581,-0.0500417
115.4,3.03794,4.9477,-0.052588
118,3.1253,4.95356,-0.0538517
120.6,3.21252,4.96694,-0.0552127
123.2,3.29909,4.96975,-0.0559079
125.8,3.38491,4.97947,-0.059176
128.4,3.47004,4.99504,-0.0601171
131,3.55528,5.00767,-0.0618095
133.6,3.63948,5.03949,-0.0604976
136.2,3.72394,5.05409,-0.0604903
138.8,3.80738,5.07227,-0.0608234
141.4,3.89013,5.08126,-0.0631228
144,3.97302,5.10981,-0.0631248
146.6,4.05557,5.12325,-0.0631284
149.2,4.13724,5.14036,-0.0631225
151.8,4.21904,5.17795,-0.0645645
154.4,4.30051,5.21791,-0.0657621
157,4.38165,5.25282,-0.0670801
159.6,4.46232,5.27661,-0.0670802
162.2,4.54373,5.32385,-0.0680691
164.8,4.62397,5.34623,-0.06807
167.4,4.7043,5.39342,-0.0693957
170,4.78477,5.43647,-0.06939
172.6,4.86429,5.48421,-0.0694736
175.2,4.94468,5.52329,-0.07071
177.8,5.02455,5.55765,-0.0707076
180.4,5.10408,5.6067,-0.0720199
183,5.18306,5.65871,-0.0730616
185.6,5.26229,5.69496,-0.0733339
188.2,5.34087,5.73999,-0.0733396
190.8,5.41947,5.79,-0.0733393
193.4,5.49792,5.84701,-0.0746585
196,5.57636,5.89604,-0.0747071
198.6,5.65402,5.95945,-0.07597
201.2,5.73248,6.01816,-0.0754092
203.8,5.80997,6.0811,-0.0762875
206.4,5.88763,6.14946,-0.0762934
209,5.96577,6.21627,-0.0785877
211.6,6.04342,6.28546,-0.0799303
214.2,6.12137,6.35327,-0.0799226
216.8,6.19868,6.42252,-0.0815552
219.4,6.27627,6.50903,-0.0832069
222,6.35401,6.63393,-0.08322
224.6,6.43173,6.85905,-0.0845012
227.2,6.51113,7.34844,-0.085804
229.8,6.59161,8.30994,-0.0848503
232.4,6.67273,9.48464,-0.0858497
235,6.75442,10.7185,-0.087173
237.6,6.83645,12.136,-0.08717
240.2,6.9193,13.6498,-0.0875681
242.8,6.99384,12.9502,-0.0861979
245.4,7.06217,10.3301,-0.08717
248,7.13385,8.70766,-0.0891837
250.6,7.20661,7.70477,-0.0898202
253.2,7.28095,7.09009,-0.0898011
255.8,7.35611,6.71088,-0.0924191
258.4,7.43178,6.5007,-0.0914517
261,7.50799,6.36883,-0.0914449
263.6,7.58396,6.28479,-0.0927599
266.2,7.66006,6.23439,-0.0924651
268.8,7.73666,6.22154,-0.0924436
271.4,7.81283,6.21894,-0.0924348
274,7.88957,6.22216,-0.0952911
276.6,7.966,6.22564,-0.0938712
279.2,8.04245,6.23883,-0.0938637
281.8,8.11914,6.25839,-0.0938848
284.4,8.19616,6.28913,-0.0951931
287,8.27265,6.33017,-0.0961572
289.6,8.3498,6.38057,-0.0959229
292.2,8.42689,6.45362,-0.0982204
294.8,8.50356,6.53081,-0.0979097
297.4,8.58051,6.626,-0.0991223
300,8.65789,6.74124,-0.100955
302.6,8.73505,6.87852,-0.104011
305.2,8.81248,7.03831,-0.105298
307.8,8.8899,7.22602,-0.109025
310.4,8.96772,7.44813,-0.112998
313,9.04544,7.71248,-0.116721
315.6,9.12362,8.02137,-0.122896
318.2,9.20197,8.39085,-0.129718
320.8,9.28028,8.83215,-0.137567
323.4,9.35936,9.35752,-0.14475
326,9.43854,9.94163,-0.154038
328.6,9.51829,10.6357,-0.165428
331.2,9.59838,11.4884,-0.178506
333.8,9.67937,12.4627,-0.193678
336.4,9.76057,13.5427,-0.211861
339,9.84232,14.7047,-0.229538
341.6,9.92239,15.6396,-0.25514
344.2,10.0004,15.4426,-0.280625
346.8,10.0719,13.4542,-0.299677
349.4,10.1422,11.1488,-0.319976
352,10.2147,9.54454,-0.33489
354.6,10.289,8.47683,-0.347857
357.2,10.3642,7.80628,-0.359309
359.8,10.4405,7.36914,-0.367552
362.4,10.5174,7.07646,-0.375299
365,10.5949,6.86595,-0.382692
367.6,10.6723,6.74748,-0.390385
370.2,10.7507,6.65753,-0.395365
372.8,10.8287,6.63646,-0.402263
375.4,10.907,6.61484,-0.406833
378,10.9855,6.65615,-0.412701
380.6,11.0644,6.68619,-0.417788
383.2,11.1433,6.75833,-0.422993
385.8,11.2226,6.84191,-0.429931
388.4,11.3016,6.94698,-0.435329
391,11.3811,7.07943,-0.442371
393.6,11.4606,7.21842,-0.452714
396.2,11.5403,7.40717,-0.463287
398.8,11.6203,7.57773,-0.474358
401.4,11.7003,7.81114,-0.486108
404,11.7803,8.07108,-0.499397
406.6,11.8609,8.37026,-0.515676
409.2,11.9412,8.69757,-0.533845
411.8,12.0225,9.07548,-0.555322
414.4,12.1034,9.49897,-0.58129
417,12.1853,9.98718,-0.611466
419.6,12.2668,10.502,-0.645765
422.2,12.3489,11.0637,-0.68446
424.8,12.4308,11.662,-0.726994
427.4,12.5133,12.2638,-0.776344
430,12.5957,12.8899,-0.833059
432.6,12.6781,13.5014,-0.897556
435.2,12.7609,14.1349,-0.969105
437.8,12.8434,14.6667,-1.04948
440.4,12.9257,15.1839,-1.13738
443,13.0078,15.576,-1.23235
445.6,13.0897,15.8409,-1.33522
448.2,13.1713,16.0916,-1.44276
450.8,13.2531,16.3087,-1.56033
453.4,13.3347,16.4965,-1.68439
456,13.4163,16.6554,-1.81897
458.6,13.4978,16.7787,-1.96039
461.2,13.5791,16.8048,-2.10627
463.8,13.6598,16.7401,-2.26056
466.4,13.7405,16.4513,-2.42097
469,13.8202,15.9984,-2.58003
471.6,13.8991,15.3176,-2.73674
474.2,13.9774,14.3592,-2.89254
476.8,14.0545,13.1552,-3.04058
479.4,14.1311,11.6888,-3.17755
482,14.2069,10.0636,-3.30116
484.6,14.2831,8.35587,-3.4125
487.2,14.3586,6.75073,-3.51001
489.8,14.4352,5.3147,-3.59077
492.4,14.5125,4.09521,-3.6563
495,14.5902,3.14331,-3.71025
497.6,14.6693,2.34238,-3.75179
500.2,14.7488,1.70764,-3.78488
502.8,14.8287,1.23027,-3.80827
505.4,14.9095,0.897242,-3.82519
508,14.9907,0.661439,-3.83653
510.6,15.0722,0.516028,-3.8425
513.2,15.1538,0.435042,-3.8466
515.8,15.2355,0.377844,-3.84914
518.4,15.3182,0.34045,-3.85195
521,15.4009,0.316685,-3.85422
523.6,15.4835,0.308426,-3.85469
526.2,15.5659,0.303559,-3.85579
528.8,15.6482,0.278179,-3.85436
531.4,15.7313,0.269948,-3.85569
534,15.814,0.267757,-3.85569
536.6,15.8968,0.260654,-3.85693
539.2,15.9799,0.253135,-3.857
541.8,16.0625,0.249068,-3.8584
544.4,16.1456,0.251614,-3.85831
547,16.229,0.262154,-3.85695
549.6,16.3117,0.240485,-3.85728
552.2,16.3949,0.234196,-3.85834
554.8,16.4784,0.226003,-3.85799
557.4,16.5615,0.21262,-3.8593
560,16.6452,0.20632,-3.86014
562.6,16.7286,0.199499,-3.8637
565.2,16.812,0.19527,-3.86084
567.8,16.8954,0.198756,-3.85952
570.4,16.9789,0.192604,-3.8595
573,17.0625,0.173947,-3.86051
575.6,17.146,0.169117,-3.86051
578.2,17.2296,0.156183,-3.86216
580.8,17.3135,0.146161,-3.86216
583.4,17.3971,0.118642,-3.86346
586,17.481,0.103141,-3.8605
588.6,17.5648,0.0996201,-3.86205
591.2,17.6488,0.0954611,-3.86186
593.8,17.732,0.0696363,-3.86139
596.4,17.817,0.0738292,-3.86139
599,17.9009,0.0621698,-3.86377
601.6,17.985,0.0493901,-3.86558
604.2,18.0691,0.0408283,-3.86003
606.8,18.1528,0.0266297,-3.86007
609.4,18.2376,0.0186522,-3.86139
612,18.322,0.0111809,-3.86269
614.6,18.4066,0.0162178,-3.86401
617.2,18.4911,-0.000564924,-3.86402
619.8,18.5758,-0.0074941,-3.86403
622.4,18.66,-0.0221254,-3.86434
625,18.7446,-0.0277523,-3.86435
627.6,18.8295,-0.0346765,-3.86303
630.2,18.914,-0.0467218,-3.86382
632.8,18.9984,-0.0495446,-3.86409
635.4,19.0834,-0.059457,-3.86402
638,19.1679,-0.0640012,-3.86531
640.6,19.2533,-0.0780422,-3.86403
643.2,19.338,-0.0734618,-3.8599
645.8,19.4229,-0.0762745,-3.86655
648.4,19.5079,-0.0810341,-3.86655
651,19.5929,-0.0868203,-3.86523
653.6,19.6775,-0.0949059,-3.86523
656.2,19.7627,-0.0865047,-3.86387
658.8,19.8478,-0.101464,-3.8623
661.4,19.933,-0.101811,-3.86611
664,20.0181,-0.117077,-3.86611
666.6,20.1024,-0.116535,-3.86611
669.2,20.1884,-0.123695,-3.86611
671.8,20.2735,-0.135882,-3.86611
674.4,20.3587,-0.14485,-3.86479
677,20.444,-0.144856,-3.86414
679.6,20.5293,-0.140968,-3.86545
682.2,20.6146,-0.15276,-3.86545
684.8,20.6999,-0.160545,-3.86679
687.4,20.7853,-0.164987,-3.86676
690,20.8704,-0.168451,-3.86675
692.6,20.9557,-0.171366,-3.86628
695.2,21.0413,-0.175184,-3.86642
697.8,21.1268,-0.186192,-3.86808
700.4,21.2125,-0.174876,-3.86809
703,21.298,-0.180883,-3.86743
705.6,21.3834,-0.189077,-3.86688
708.2,21.4689,-0.19581,-3.86809
710.8,21.5554,-0.192834,-3.86768
713.4,21.6409,-0.197966,-3.8694
716,21.7269,-0.211751,-3.86816
718.6,21.8126,-0.211945,-3.86808
721.2,21.8985,-0.214672,-3.86947
723.8,21.9845,-0.22578,-3.86808
726.4,22.0703,-0.22427,-3.86809
729,22.1563,-0.230766,-3.86809
731.6,22.2423,-0.239689,-3.86809
734.2,22.3283,-0.238279,-3.86941
736.8,22.4142,-0.24214,-3.86941
739.4,22.5004,-0.245227,-3.87258
742,22.5863,-0.250103,-3.86961
744.6,22.6725,-0.261742,-3.86962
747.2,22.7582,-0.270534,-3.87049
749.8,22.8445,-0.263742,-3.87326
752.4,22.9307,-0.263816,-3.871
755,23.0167,-0.257535,-3.87237
757.6,23.1029,-0.255744,-3.87335
760.2,23.1894,-0.255339,-3.87222
762.8,23.276,-0.250572,-3.87236
765.4,23.3621,-0.244781,-3.87105
768,23.4486,-0.24503,-3.87204
770.6,23.5352,-0.241173,-3.87102
773.2,23.6217,-0.230649,-3.87103
775.8,23.7081,-0.219861,-3.87237
778.4,23.7946,-0.221979,-3.87279
781,23.8809,-0.222328,-3.87226
783.6,23.9676,-0.226963,-3.87164
786.2,24.0542,-0.227917,-3.87244
788.8,24.1411,-0.225328,-3.87236
790,24.1813,-0.230215,-3.87236