Folder: fsri_materials_database/01_Data/Three_Layer_Turnout_Gear_Moisture_Barrier/STA/N2/10K_min

File: Three_Layer_Turnout_Gear_Moisture_Barrier_STA_N2_10KData_240523_R1.csv
Temp./C,Time/min,DSC/(mW/mg),Mass loss/mg
60.0,0.0,0.944868,-0.0167559
62.5,0.280161,1.01509,-0.0192113
65,0.552553,1.07656,-0.0205
67.5,0.823722,1.12892,-0.0205108
70,1.08715,1.17192,-0.0215186
72.5,1.35064,1.21685,-0.0221584
75,1.6089,1.25925,-0.0247156
77.5,1.86688,1.28218,-0.0247862
80,2.12356,1.31005,-0.0270167
82.5,2.37766,1.34075,-0.0271274
85,2.63126,1.34905,-0.02975
87.5,2.88212,1.3517,-0.0310709
90,3.13113,1.34149,-0.03272
92.5,3.3784,1.34596,-0.0328176
95,3.6257,1.32522,-0.0338195
97.5,3.8714,1.31221,-0.0351303
100,4.11578,1.29293,-0.0374542
102.5,4.35979,1.27161,-0.0364723
105,4.60323,1.25098,-0.0367794
107.5,4.84589,1.24984,-0.0384309
110,5.08794,1.23707,-0.0371039
112.5,5.33191,1.22376,-0.0410582
115,5.57206,1.21894,-0.0384281
117.5,5.81539,1.21651,-0.039703
120,6.05668,1.21858,-0.0384309
122.5,6.29791,1.21351,-0.0411693
125,6.53896,1.22615,-0.0392
127.5,6.78044,1.22055,-0.0396923
130,7.02179,1.23274,-0.0415
132.5,7.26216,1.23049,-0.041451
135,7.50116,1.24055,-0.0430039
137.5,7.74233,1.24049,-0.0416094
140,7.97926,1.24331,-0.04161
142.5,8.2202,1.24016,-0.0416102
145,8.45967,1.25416,-0.04128
147.5,8.69866,1.26146,-0.0398465
150,8.93581,1.27335,-0.0441169
152.5,9.17587,1.2763,-0.0433719
155,9.41494,1.28003,-0.0437042
157.5,9.65358,1.29098,-0.04271
160,9.89202,1.29555,-0.0437008
162.5,10.1304,1.30326,-0.0440767
165,10.3696,1.31519,-0.0434091
167.5,10.6073,1.31823,-0.0438
170,10.8455,1.33325,-0.0451224
172.5,11.0836,1.33366,-0.0461246
175,11.3227,1.33412,-0.04479
177.5,11.5603,1.34184,-0.0461062
180,11.7987,1.34216,-0.0454552
182.5,12.0359,1.34721,-0.0468243
185,12.2728,1.3516,-0.0469862
187.5,12.5121,1.35362,-0.0469011
190,12.7498,1.36108,-0.0459204
192.5,12.9875,1.36098,-0.0481978
195,13.2255,1.36333,-0.049586
197.5,13.4628,1.3658,-0.04984
200,13.7011,1.37823,-0.049839
202.5,13.9386,1.38558,-0.04985
205,14.1783,1.39332,-0.0511643
207.5,14.4147,1.39436,-0.0511398
210,14.6516,1.39329,-0.0511602
212.5,14.8893,1.39303,-0.0511601
215,15.1273,1.41152,-0.0516405
217.5,15.3629,1.42179,-0.0522696
220,15.601,1.42772,-0.0528474
222.5,15.8384,1.4446,-0.0537915
225,16.0771,1.46633,-0.05511
227.5,16.3154,1.48873,-0.0551071
230,16.5544,1.50762,-0.0537945
232.5,16.7925,1.54225,-0.0557307
235,17.0287,1.57877,-0.0590686
237.5,17.2668,1.61491,-0.0596661
240,17.5056,1.64112,-0.0617008
242.5,17.7435,1.67073,-0.0636653
245,17.981,1.68151,-0.0671423
247.5,18.2198,1.69073,-0.0666371
250,18.4564,1.69211,-0.0696192
252.5,18.6945,1.6905,-0.0725699
255,18.9336,1.66614,-0.0762122
257.5,19.1721,1.64563,-0.07916
260,19.4095,1.62554,-0.0817863
262.5,19.6478,1.61586,-0.0857478
265,19.8874,1.63013,-0.0883813
267.5,20.1251,1.65245,-0.092329
270,20.3634,1.68752,-0.0949643
272.5,20.603,1.69587,-0.0992416
275,20.8424,1.70847,-0.105861
277.5,21.0806,1.71725,-0.11115
280,21.3205,1.72064,-0.116301
282.5,21.5591,1.7049,-0.124403
285,21.7984,1.71404,-0.133083
287.5,22.0374,1.70348,-0.142719
290,22.2782,1.7,-0.154864
292.5,22.5161,1.67212,-0.165564
295,22.752,1.6482,-0.17781
297.5,22.9945,1.62692,-0.189815
300,23.2333,1.55309,-0.203678
302.5,23.4708,1.40192,-0.213113
305,23.7097,1.15544,-0.227361
307.5,23.9444,0.691824,-0.244272
310,24.1855,0.848676,-0.273458
312.5,24.4294,1.0639,-0.300825
315,24.672,1.21215,-0.321992
317.5,24.9118,1.3118,-0.34182
320,25.1563,1.38292,-0.359694
322.5,25.3969,1.47815,-0.377029
325,25.6395,1.64472,-0.392231
327.5,25.8863,2.11391,-0.404904
330,26.1244,1.76086,-0.41761
332.5,26.3616,1.48504,-0.42711
335,26.6009,1.40755,-0.438914
337.5,26.8418,1.36687,-0.447852
340,27.083,1.3476,-0.457571
342.5,27.3238,1.33405,-0.465893
345,27.5655,1.3186,-0.474161
347.5,27.8066,1.29969,-0.482905
350,28.0478,1.2937,-0.491365
352.5,28.2909,1.27181,-0.498962
355,28.5321,1.26725,-0.506536
357.5,28.7751,1.26091,-0.514215
360,29.0168,1.24234,-0.521017
362.5,29.2597,1.23185,-0.531001
365,29.5032,1.24075,-0.538511
367.5,29.7462,1.25576,-0.548082
370,29.9891,1.25773,-0.555666
372.5,30.2324,1.26692,-0.565165
375,30.4762,1.29377,-0.574639
377.5,30.7193,1.32171,-0.585075
380,30.9634,1.3353,-0.597185
382.5,31.2073,1.29421,-0.607823
385,31.451,1.27602,-0.618623
387.5,31.695,1.28672,-0.629531
390,31.9389,1.2971,-0.643502
392.5,32.1835,1.31367,-0.653997
395,32.428,1.33396,-0.666763
397.5,32.6728,1.35541,-0.680526
400,32.9182,1.3921,-0.694148
402.5,33.1641,1.42194,-0.70762
405,33.4101,1.45722,-0.722732
407.5,33.6552,1.5058,-0.737118
410,33.9009,1.55918,-0.751615
412.5,34.1466,1.62403,-0.765463
415,34.3921,1.69135,-0.779811
417.5,34.638,1.76083,-0.793873
420,34.8836,1.77756,-0.809011
422.5,35.1294,1.80009,-0.823204
425,35.3744,1.77865,-0.839141
427.5,35.6195,1.75141,-0.854021
430,35.8649,1.71777,-0.870436
432.5,36.1104,1.70718,-0.888535
435,36.3562,1.7171,-0.906619
437.5,36.6029,1.73677,-0.922613
440,36.8491,1.7521,-0.94333
442.5,37.0946,1.75557,-0.962053
445,37.343,1.75829,-0.983041
447.5,37.5885,1.75615,-1.00444
450,37.8359,1.74239,-1.02727
452.5,38.0834,1.73467,-1.0505
455,38.3311,1.73122,-1.07294
457.5,38.5769,1.70698,-1.09567
460,38.8237,1.68131,-1.11953
462.5,39.0715,1.64032,-1.14408
465,39.3185,1.60445,-1.16686
467.5,39.5656,1.56252,-1.1881
470,39.8133,1.52072,-1.20857
472.5,40.0595,1.45785,-1.23018
475,40.3079,1.39856,-1.24914
477.5,40.5546,1.33339,-1.26811
480,40.802,1.289,-1.28487
482.5,41.0507,1.23094,-1.3008
485,41.2976,1.16016,-1.31718
487.5,41.5459,1.07323,-1.33523
490,41.7945,1.00354,-1.34934
492.5,42.0439,0.955612,-1.36367
495,42.2917,0.912363,-1.37709
497.5,42.5406,0.899444,-1.39059
500,42.79,0.883784,-1.40476
502.5,43.0381,0.874055,-1.4166
505,43.2867,0.860578,-1.42972
507.5,43.5348,0.850648,-1.44186
510,43.783,0.827905,-1.4555
512.5,44.0325,0.799527,-1.46952
515,44.2799,0.790165,-1.47812
517.5,44.5304,0.762663,-1.49267
520,44.7793,0.726694,-1.50652
522.5,45.0286,0.743203,-1.52049
525,45.2785,0.792332,-1.53597
527.5,45.5268,0.874794,-1.54883
530,45.7795,0.934631,-1.56554
532.5,46.0301,0.991063,-1.57886
535,46.2819,1.02604,-1.59809
537.5,46.5321,1.05916,-1.61248
540,46.7822,1.09301,-1.63379
542.5,47.0317,1.13301,-1.6525
545,47.2804,1.14346,-1.67322
547.5,47.5317,1.14554,-1.69512
550,47.7811,1.12927,-1.71868
552.5,48.0321,1.13219,-1.74319
555,48.2805,1.10264,-1.76968
557.5,48.5311,1.04438,-1.79537
560,48.7817,0.980251,-1.82291
562.5,49.0325,0.938898,-1.84967
565,49.2819,0.908392,-1.87736
567.5,49.5333,0.865437,-1.90493
570,49.7843,0.785473,-1.92939
572.5,50.034,0.637564,-1.95491
575,50.2834,0.494824,-1.97661
577.5,50.5339,0.352355,-1.99388
580,50.7849,0.279972,-2.00866
582.5,51.0365,0.303573,-2.01889
585,51.2893,0.456268,-2.02818
587.5,51.5443,0.615951,-2.03308
590,51.7975,0.735017,-2.03845
592.5,52.0508,0.8657,-2.04154
595,52.3039,0.938476,-2.04262
597.5,52.5562,0.973623,-2.04908
600,52.8103,1.01109,-2.05063
602.5,53.0629,1.03194,-2.05558
605,53.3149,1.04884,-2.0575
607.5,53.5679,1.07425,-2.05997
610,53.8202,1.07197,-2.06387
612.5,54.0738,1.08865,-2.06913
615,54.3277,1.1041,-2.07067
617.5,54.5803,1.1224,-2.07583
620,54.8339,1.14963,-2.0771
622.5,55.0868,1.15655,-2.08278
625,55.3401,1.17512,-2.0856
627.5,55.5922,1.20886,-2.08829
630,55.8449,1.22475,-2.09093
632.5,56.0972,1.23071,-2.09468
635,56.3489,1.24888,-2.09785
637.5,56.6024,1.24583,-2.10183
640,56.8555,1.24968,-2.10408
642.5,57.1062,1.25107,-2.1058
645,57.3624,1.2572,-2.1097
647.5,57.6161,1.26055,-2.11102
650,57.8699,1.26297,-2.11397
652.5,58.1233,1.27322,-2.11684
655,58.3773,1.28399,-2.12032
657.5,58.6307,1.28327,-2.12288
660,58.8827,1.2964,-2.1255
662.5,59.1379,1.29887,-2.12353
665,59.391,1.30302,-2.13265
667.5,59.6457,1.30499,-2.13397
670,59.8989,1.30809,-2.13804
672.5,60.155,1.31202,-2.13967
675,60.4068,1.31009,-2.14231
677.5,60.6621,1.31192,-2.14363
680,60.9163,1.31551,-2.14627
682.5,61.1685,1.30848,-2.15008
685,61.4225,1.30672,-2.15154
687.5,61.676,1.29928,-2.15461
690,61.9296,1.29803,-2.15812
692.5,62.1833,1.29888,-2.16074
695,62.438,1.30703,-2.16151
697.5,62.6905,1.28862,-2.16235
700,62.9445,1.28836,-2.16831
702.5,63.1977,1.27748,-2.17162
705,63.4517,1.27035,-2.17459
707.5,63.7073,1.28277,-2.17757
710,63.9607,1.2591,-2.18081
712.5,64.2175,1.25463,-2.18348
715,64.4722,1.25358,-2.18479
717.5,64.7265,1.24148,-2.18691
720,64.9805,1.23354,-2.1906
722.5,65.2351,1.22794,-2.19468
725,65.4896,1.21427,-2.19468
727.5,65.7444,1.18933,-2.20061
730,65.9991,1.16524,-2.20061
732.5,66.255,1.16678,-2.20326
735,66.5095,1.13946,-2.20557
737.5,66.7647,1.13641,-2.20864
740,67.0182,1.1219,-2.2096
742.5,67.2744,1.11057,-2.21389
745,67.5291,1.09611,-2.214
747.5,67.7846,1.08983,-2.21596
750,68.04,1.08,-2.21928
752.5,68.2957,1.06463,-2.22191
755,68.5512,1.06786,-2.22424
757.5,68.8073,1.05481,-2.22633
760,69.0618,1.03772,-2.22783
762.5,69.3174,1.02656,-2.23047
765,69.5731,1.01844,-2.2331
767.5,69.8283,1.0158,-2.23509
770,70.0835,1.0065,-2.23573
772.5,70.3373,0.998042,-2.23837
775,70.5932,1.0037,-2.23903
777.5,70.8493,0.977084,-2.24172
780,71.1045,0.993444,-2.24164
782.5,71.36,0.980987,-2.2443
785,71.6137,0.983436,-2.24562
787.5,71.8712,0.97343,-2.24472
790,72.1265,0.947842,-2.24964

File: Three_Layer_Turnout_Gear_Moisture_Barrier_STA_N2_10KData_240531_R2.csv
Temp./C,Time/min,DSC/(mW/mg),Mass loss/mg
60.0,0.0,0.74207,-0.0280991
62.5,0.277373,0.800636,-0.0293952
65,0.549913,0.838609,-0.031683
67.5,0.816441,0.887354,-0.0291002
70,1.07784,0.925727,-0.0317269
72.5,1.34516,0.962304,-0.0315211
75,1.60473,0.99561,-0.0328723
77.5,1.86333,1.01732,-0.03547
80,2.12107,1.04109,-0.0377698
82.5,2.37561,1.05969,-0.0394989
85,2.62959,1.06347,-0.0374399
87.5,2.88116,1.07064,-0.0428314
90,3.13008,1.06317,-0.0446929
92.5,3.37872,1.06079,-0.046
95,3.62495,1.05805,-0.0459136
97.5,3.8712,1.0314,-0.0469874
100,4.11544,1.01034,-0.0487912
102.5,4.35969,0.996765,-0.0485252
105,4.60331,0.974036,-0.0493361
107.5,4.84392,0.962053,-0.0491302
110,5.08987,0.934337,-0.0529203
112.5,5.33193,0.91903,-0.0516927
115,5.57435,0.908585,-0.04996
117.5,5.81764,0.90424,-0.0502911
120,6.05898,0.887217,-0.0516
122.5,6.30025,0.880532,-0.05292
125,6.54056,0.882453,-0.05292
127.5,6.78115,0.874705,-0.0529302
130,7.02065,0.869771,-0.05292
132.5,7.26137,0.883896,-0.05424
135,7.50078,0.885114,-0.0529193
137.5,7.74018,0.877099,-0.0555609
140,7.97984,0.885413,-0.05556
142.5,8.21784,0.87992,-0.0568702
145,8.45706,0.882365,-0.0555504
147.5,8.69678,0.889198,-0.0565355
150,8.93596,0.885043,-0.0565482
152.5,9.1732,0.888039,-0.0565476
155,9.41173,0.882324,-0.05787
157.5,9.65018,0.903621,-0.0578991
160,9.88807,0.903584,-0.0575306
162.5,10.1263,0.897089,-0.0575294
165,10.3644,0.918896,-0.0572
167.5,10.6019,0.925739,-0.0585286
170,10.8405,0.924872,-0.0598565
172.5,11.0794,0.929686,-0.0598302
175,11.3173,0.930518,-0.0598306
177.5,11.5544,0.927245,-0.0628133
180,11.7923,0.932091,-0.0612046
182.5,12.0301,0.925962,-0.0619203
185,12.2682,0.93853,-0.0643303
187.5,12.5062,0.941211,-0.06433
190,12.7429,0.935127,-0.063018
192.5,12.9792,0.940482,-0.06368
195,13.2166,0.946232,-0.0646696
197.5,13.4546,0.944586,-0.0661787
200,13.6919,0.951176,-0.0688795
202.5,13.9304,0.954925,-0.0669795
205,14.166,0.943321,-0.06829
207.5,14.4021,0.945629,-0.06829
210,14.6404,0.949389,-0.06994
212.5,14.8771,0.958448,-0.0686187
215,15.1152,0.962524,-0.0696397
217.5,15.3512,0.974194,-0.0712863
220,15.5894,0.985893,-0.0718069
222.5,15.8271,1.00067,-0.07323
225,16.0648,1.01091,-0.0722517
227.5,16.3016,1.03833,-0.0745394
230,16.5403,1.06644,-0.0751941
232.5,16.7779,1.09577,-0.07784
235,17.0165,1.11276,-0.0785637
237.5,17.2536,1.15185,-0.0802098
240,17.4915,1.16582,-0.0801497
242.5,17.7291,1.17641,-0.0827858
245,17.9672,1.18518,-0.084055
247.5,18.2051,1.17967,-0.08674
250,18.4434,1.17698,-0.089428
252.5,18.6813,1.18456,-0.0906897
255,18.918,1.16804,-0.094427
257.5,19.1561,1.14762,-0.09464
260,19.3931,1.12682,-0.0961742
262.5,19.6315,1.1229,-0.098635
265,19.8698,1.13093,-0.100937
267.5,20.107,1.16791,-0.106486
270,20.3459,1.19668,-0.110194
272.5,20.5858,1.22143,-0.114403
275,20.8234,1.23138,-0.118362
277.5,21.062,1.23954,-0.123754
280,21.3004,1.24203,-0.131645
282.5,21.5396,1.25036,-0.138335
285,21.7793,1.248,-0.14613
287.5,22.0176,1.25309,-0.151605
290,22.257,1.2509,-0.164008
292.5,22.4959,1.22043,-0.175574
295,22.7351,1.196,-0.187942
297.5,22.9729,1.14542,-0.197467
300,23.2119,1.07927,-0.209737
302.5,23.449,0.91301,-0.220461
305,23.6854,0.671783,-0.232505
307.5,23.9173,0.0898648,-0.25144
310,24.1596,0.300381,-0.279115
312.5,24.4026,0.576536,-0.302381
315,24.6443,0.742567,-0.325113
317.5,24.8859,0.85677,-0.343839
320,25.1279,0.947229,-0.363675
322.5,25.3686,1.04373,-0.380038
325,25.612,1.24775,-0.396641
327.5,25.8574,1.73792,-0.414541
330,26.0938,1.26873,-0.428773
332.5,26.3331,1.01217,-0.442529
335,26.5728,0.921178,-0.452617
337.5,26.8126,0.883047,-0.462646
340,27.0528,0.856009,-0.474802
342.5,27.2946,0.826433,-0.482329
345,27.5347,0.797458,-0.492606
347.5,27.776,0.773881,-0.502116
350,28.017,0.754816,-0.510608
352.5,28.2582,0.72948,-0.51907
355,28.4993,0.708467,-0.524568
357.5,28.7424,0.687473,-0.53246
360,28.9831,0.665284,-0.544522
362.5,29.225,0.674847,-0.549613
365,29.4675,0.681308,-0.558743
367.5,29.7098,0.697746,-0.567064
370,29.9522,0.711738,-0.575766
372.5,30.1954,0.733697,-0.585621
375,30.4384,0.747496,-0.595976
377.5,30.6814,0.769146,-0.606624
380,30.924,0.764406,-0.6182
382.5,31.1667,0.72423,-0.629783
385,31.4088,0.698862,-0.63915
387.5,31.651,0.712458,-0.651515
390,31.8942,0.729157,-0.663644
392.5,32.1381,0.733569,-0.675684
395,32.382,0.744343,-0.688515
397.5,32.6271,0.764546,-0.703648
400,32.8711,0.802204,-0.718437
402.5,33.1156,0.820729,-0.730096
405,33.3605,0.865715,-0.744121
407.5,33.6061,0.914506,-0.758417
410,33.8509,0.971481,-0.774176
412.5,34.0949,1.03774,-0.789451
415,34.3414,1.09206,-0.805069
417.5,34.5863,1.12587,-0.820041
420,34.8311,1.1554,-0.831792
422.5,35.0761,1.14502,-0.848257
425,35.3208,1.10994,-0.867009
427.5,35.5659,1.0669,-0.880215
430,35.81,1.02615,-0.898057
432.5,36.0544,0.986483,-0.912919
435,36.2996,0.966567,-0.92927
437.5,36.545,0.958712,-0.950497
440,36.7896,0.964778,-0.968103
442.5,37.0356,0.962172,-0.98711
445,37.282,0.970916,-1.00849
447.5,37.5281,0.969565,-1.02704
450,37.7734,0.967475,-1.05219
452.5,38.0183,0.963576,-1.07064
455,38.2669,0.947977,-1.09261
457.5,38.513,0.934318,-1.11565
460,38.7597,0.909489,-1.13766
462.5,39.006,0.872751,-1.16317
465,39.2531,0.842586,-1.18304
467.5,39.4993,0.7978,-1.20425
470,39.7453,0.745259,-1.22478
472.5,39.9918,0.696806,-1.24428
475,40.2376,0.634356,-1.2648
477.5,40.4834,0.583736,-1.28309
480,40.7305,0.536409,-1.30086
482.5,40.9771,0.487138,-1.31698
485,41.2236,0.435052,-1.3309
487.5,41.4696,0.372203,-1.34645
490,41.7168,0.31821,-1.36008
492.5,41.9644,0.265793,-1.37428
495,42.2109,0.230925,-1.38938
497.5,42.4585,0.203234,-1.39959
500,42.7071,0.187875,-1.41407
502.5,42.9554,0.17759,-1.42719
505,43.2039,0.165423,-1.44474
507.5,43.4493,0.175925,-1.45454
510,43.6999,0.151953,-1.46936
512.5,43.949,0.146607,-1.48362
515,44.1963,0.132291,-1.4972
517.5,44.4463,0.115471,-1.50865
520,44.6954,0.117239,-1.52544
522.5,44.9426,0.082619,-1.53873
525,45.1911,-0.0340664,-1.55277
527.5,45.4391,-0.0115589,-1.57079
530,45.6904,0.135622,-1.5869
532.5,45.9394,0.260488,-1.60286
535,46.1895,0.354818,-1.62139
537.5,46.4401,0.414834,-1.64046
540,46.6896,0.460349,-1.66062
542.5,46.9391,0.502764,-1.68191
545,47.1882,0.526254,-1.70463
547.5,47.4379,0.531161,-1.72557
550,47.6868,0.526272,-1.75214
552.5,47.936,0.507866,-1.77798
555,48.1845,0.481695,-1.80555
557.5,48.4348,0.459017,-1.83152
560,48.684,0.429121,-1.85976
562.5,48.9343,0.396854,-1.88645
565,49.1831,0.351052,-1.91444
567.5,49.4313,0.287023,-1.94225
570,49.682,0.182949,-1.97003
572.5,49.9311,0.0390823,-1.99477
575,50.1797,-0.154842,-2.01724
577.5,50.4287,-0.35584,-2.03767
580,50.6774,-0.496733,-2.05163
582.5,50.9285,-0.513861,-2.06031
585,51.1806,-0.408941,-2.07107
587.5,51.4341,-0.29518,-2.07791
590,51.6857,-0.21159,-2.08287
592.5,51.9369,-0.148671,-2.08447
595,52.1891,-0.0754865,-2.08677
597.5,52.441,-0.0328177,-2.08973
600,52.6922,0.0105734,-2.09379
602.5,52.9443,0.032368,-2.09772
605,53.1967,0.0645472,-2.10173
607.5,53.4487,0.0751903,-2.10664
610,53.6997,0.0874019,-2.10698
612.5,53.9518,0.111086,-2.11091
615,54.2043,0.130097,-2.11251
617.5,54.456,0.133169,-2.11791
620,54.7087,0.152625,-2.12157
622.5,54.9609,0.175559,-2.12288
625,55.2128,0.185636,-2.12807
627.5,55.4648,0.206274,-2.13212
630,55.7175,0.264292,-2.1338
632.5,55.9689,0.224838,-2.13744
635,56.2223,0.237514,-2.14042
637.5,56.4751,0.255901,-2.14547
640,56.728,0.263651,-2.14703
642.5,56.982,0.277703,-2.14657
645,57.2349,0.280457,-2.15236
647.5,57.4883,0.289223,-2.15559
650,57.7401,0.289567,-2.15868
652.5,57.9917,0.278242,-2.16328
655,58.2443,0.280336,-2.16592
657.5,58.4972,0.290222,-2.16855
660,58.7487,0.291355,-2.16987
662.5,58.9993,0.292943,-2.17251
665,59.2532,0.295626,-2.17645
667.5,59.5047,0.294735,-2.18041
670,59.757,0.285326,-2.18337
672.5,60.01,0.287273,-2.18568
675,60.2633,0.276361,-2.19104
677.5,60.516,0.277259,-2.1947
680,60.7689,0.278047,-2.19336
682.5,61.022,0.26109,-2.19604
685,61.275,0.264187,-2.19995
687.5,61.5279,0.262714,-2.20256
690,61.7818,0.25626,-2.20786
692.5,62.0356,0.242354,-2.21082
695,62.289,0.240488,-2.21566
697.5,62.5426,0.233574,-2.21477
700,62.7946,0.223502,-2.21741
702.5,63.0497,0.215936,-2.21935
705,63.3048,0.195981,-2.22169
707.5,63.5589,0.186769,-2.22575
710,63.8122,0.179566,-2.2284
712.5,64.0667,0.167935,-2.2297
715,64.32,0.153565,-2.23019
717.5,64.5734,0.151241,-2.23399
720,64.8281,0.126977,-2.23893
722.5,65.0823,0.107664,-2.24156
725,65.3366,0.102396,-2.24403
727.5,65.5911,0.0933352,-2.24815
730,65.8437,0.0847115,-2.24863
732.5,66.0979,0.0783653,-2.25242
735,66.3512,0.0538483,-2.2543
737.5,66.6058,0.0405738,-2.25638
740,66.8595,0.0287987,-2.25901
742.5,67.114,0.0226439,-2.26034
745,67.3679,0.0060539,-2.26197
747.5,67.623,-0.00176135,-2.26431
750,67.8791,-0.0206131,-2.26824
752.5,68.1339,-0.0276798,-2.27087
755,68.3887,-0.0277467,-2.26955
757.5,68.6438,-0.0390695,-2.27351
760,68.8975,-0.0476144,-2.27532
762.5,69.1523,-0.0631125,-2.27811
765,69.4073,-0.0717711,-2.27944
767.5,69.6618,-0.0797648,-2.28339
770,69.9165,-0.0776841,-2.28298
772.5,70.1726,-0.087119,-2.28569
775,70.4274,-0.0883754,-2.28876
777.5,70.6831,-0.0886629,-2.28625
780,70.9389,-0.0926073,-2.28888
782.5,71.1954,-0.09408,-2.29052
785,71.4514,-0.0905806,-2.29049
787.5,71.709,-0.102848,-2.29513
790,71.9662,-0.104617,-2.29777