Folder: fsri_materials_database/01_Data/Pressure_Treated_Deck/FTIR/IS

File: Pressure_Treated_Deck_IS_T_221012_R4.dpt
7497.03,0.02229
7473.89,0.02142
7450.74,0.02566
7427.6,0.02508
7404.45,0.01701
7381.31,0.01882
7358.16,0.02426
7335.02,0.02953
7311.87,0.02413
7288.73,0.02100
7265.58,0.01863
7242.44,0.02084
7219.29,0.01875
7196.15,0.01853
7173,0.02634
7149.86,0.01753
7126.71,0.02158
7103.57,0.01731
7080.42,0.02001
7057.28,0.02231
7034.13,0.02070
7010.99,0.02166
6987.84,0.02817
6964.7,0.02749
6941.55,0.02074
6918.41,0.02967
6895.26,0.01476
6872.12,0.02758
6848.97,0.02186
6825.83,0.02577
6802.68,0.02018
6779.54,0.02294
6756.39,0.02353
6733.25,0.02345
6710.1,0.02512
6686.96,0.01633
6663.82,0.02354
6640.67,0.02379
6617.53,0.01861
6594.38,0.02243
6571.24,0.02578
6548.09,0.02053
6524.95,0.02513
6501.8,0.02249
6478.66,0.02079
6455.51,0.02357
6432.37,0.02259
6409.22,0.02359
6386.08,0.02407
6362.93,0.02116
6339.79,0.02261
6316.64,0.01987
6293.5,0.01995
6270.35,0.02000
6247.21,0.02141
6224.06,0.02040
6200.92,0.02105
6177.77,0.02327
6154.63,0.01915
6131.48,0.01971
6108.34,0.02034
6085.19,0.02399
6062.05,0.02024
6038.9,0.02012
6015.76,0.02189
5992.61,0.02460
5969.47,0.01996
5946.32,0.01984
5923.18,0.02184
5900.03,0.02086
5876.89,0.02101
5853.74,0.02177
5830.6,0.02031
5807.45,0.02142
5784.31,0.01983
5761.16,0.02090
5738.02,0.02137
5714.87,0.01958
5691.73,0.02124
5668.58,0.01839
5645.44,0.02102
5622.29,0.02106
5599.15,0.02046
5576,0.02130
5552.86,0.02167
5529.71,0.02336
5506.57,0.02261
5483.42,0.02058
5460.28,0.02110
5437.13,0.02187
5413.99,0.02172
5390.84,0.02147
5367.7,0.02158
5344.55,0.02206
5321.41,0.02120
5298.26,0.02230
5275.12,0.02026
5251.97,0.02213
5228.83,0.02214
5205.68,0.02080
5182.54,0.02059
5159.39,0.02176
5136.25,0.02143
5113.1,0.02208
5089.96,0.02011
5066.81,0.02119
5043.67,0.02144
5020.52,0.02074
4997.38,0.02178
4974.23,0.02083
4951.09,0.01958
4927.94,0.02225
4904.8,0.02143
4881.65,0.02185
4858.51,0.02092
4835.36,0.02166
4812.22,0.02123
4789.07,0.02270
4765.93,0.02215
4742.78,0.02238
4719.64,0.02201
4696.49,0.02269
4673.35,0.02264
4650.2,0.02127
4627.06,0.02151
4603.92,0.02186
4580.77,0.02141
4557.63,0.02170
4534.48,0.02146
4511.34,0.02132
4488.19,0.02093
4465.05,0.02164
4441.9,0.02234
4418.76,0.02197
4395.61,0.02154
4372.47,0.02219
4349.32,0.02217
4326.18,0.02190
4303.03,0.02153
4279.89,0.02236
4256.74,0.02200
4233.6,0.02177
4210.45,0.02146
4187.31,0.02191
4164.16,0.02235
4141.02,0.02152
4117.87,0.02243
4094.73,0.02149
4071.58,0.02170
4048.44,0.02221
4025.29,0.02209
4002.15,0.02167
3979,0.02199
3955.86,0.02182
3932.71,0.02209
3909.57,0.02202
3886.42,0.02321
3863.28,0.02227
3840.13,0.02298
3816.99,0.02245
3793.84,0.02239
3770.7,0.02204
3747.55,0.02246
3724.41,0.02181
3701.26,0.02198
3678.12,0.02212
3654.97,0.02204
3631.83,0.02162
3608.68,0.02170
3585.54,0.02092
3562.39,0.02026
3539.25,0.02066
3516.1,0.02066
3492.96,0.02066
3469.81,0.02011
3446.67,0.02001
3423.52,0.02064
3400.38,0.01986
3377.23,0.02033
3354.09,0.01982
3330.94,0.01990
3307.8,0.02025
3284.65,0.02019
3261.51,0.02061
3238.36,0.02048
3215.22,0.01962
3192.07,0.02083
3168.93,0.02025
3145.78,0.02013
3122.64,0.01996
3099.49,0.01994
3076.35,0.01964
3053.2,0.02031
3030.06,0.02027
3006.91,0.01969
2983.77,0.01938
2960.62,0.01881
2937.48,0.01983
2914.33,0.02009
2891.19,0.02027
2868.04,0.02002
2844.9,0.02071
2821.75,0.02065
2798.61,0.02076
2775.46,0.02072
2752.32,0.02055
2729.17,0.02090
2706.03,0.02076
2682.88,0.02089
2659.74,0.02064
2636.59,0.02137
2613.45,0.02087
2590.3,0.02106
2567.16,0.02132
2544.02,0.02077
2520.87,0.02104
2497.73,0.02100
2474.58,0.02093
2451.44,0.02068
2428.29,0.02108
2405.15,0.02096
2382,0.02081
2358.86,0.02145
2335.71,0.02104
2312.57,0.02122
2289.42,0.02096
2266.28,0.02116
2243.13,0.02067
2219.99,0.02081
2196.84,0.02103
2173.7,0.02122
2150.55,0.02075
2127.41,0.02075
2104.26,0.02094
2081.12,0.02066
2057.97,0.02093
2034.83,0.02103
2011.68,0.02080
1988.54,0.02055
1965.39,0.02053
1942.25,0.02071
1919.1,0.02078
1895.96,0.02055
1872.81,0.02031
1849.67,0.02048
1826.52,0.02028
1803.38,0.01982
1780.23,0.01886
1757.09,0.01775
1733.94,0.01979
1710.8,0.02032
1687.65,0.01899
1664.51,0.01883
1641.36,0.01820
1618.22,0.01889
1595.07,0.01822
1571.93,0.01805
1548.78,0.01847
1525.64,0.01855
1502.49,0.01853
1479.35,0.01856
1456.2,0.01871
1433.06,0.01847
1409.91,0.01819
1386.77,0.01834
1363.62,0.01797
1340.48,0.01816
1317.33,0.01701
1294.19,0.01762
1271.04,0.01944
1247.9,0.02011
1224.75,0.01929
1201.61,0.01850
1178.46,0.01797
1155.32,0.01723
1132.17,0.01722
1109.03,0.01866
1085.88,0.01763
1062.74,0.01954
1039.59,0.01936
1016.45,0.01935
993.304,0.02140
970.159,0.02052
947.014,0.01955
923.869,0.02030
900.724,0.01864
877.579,0.01879
854.434,0.01801
831.289,0.01931
808.144,0.01830
784.999,0.01843
761.854,0.01771
738.709,0.01843
715.565,0.01824
692.42,0.01844
669.275,0.01774
646.13,0.01804
622.985,0.01585
599.84,0.01566