Folder: fsri_materials_database/01_Data/Helmet_Tetrahedron/STA/N2/10K_min (part 2)

File: Helmet_Tetrahedron_STA_N2_10KData_250512_R3.csv
Temp./C,Time/min,DSC/(mW/mg),Mass loss/mg
35.0,0.0,0.48442,0.00374548
37.4,0.382038,0.57644,0.00090477
39.8,0.727982,0.64481,0.00212955
42.2,1.05167,0.703177,0.000136925
44.6,1.35779,0.746476,2.73978e-06
47,1.65248,0.796554,-4.34953e-05
49.4,1.94181,0.837724,0.0010492
51.8,2.21647,0.880487,-0.000529546
54.2,2.49219,0.933262,-0.00301774
56.6,2.75935,0.951666,-0.00319472
59,3.02169,0.981198,-0.00286868
61.4,3.2797,0.995199,-0.00321427
63.8,3.53193,0.993619,-0.00256005
66.2,3.78402,0.999349,-0.00250532
68.6,4.03237,1.01139,-0.0020535
71,4.28158,1.0238,-0.00186455
73.4,4.5263,1.04496,-0.00319989
75.8,4.76647,1.05445,-0.00187981
78.2,5.01326,1.06457,-0.00321866
80.6,5.25406,1.07045,-0.00321262
83,5.49343,1.10039,-0.00320391
85.4,5.73195,1.1086,-0.0030797
87.8,5.96921,1.11916,-0.00331689
90.2,6.20539,1.13607,-0.00570004
92.6,6.44157,1.15584,-0.00310366
95,6.67546,1.15971,-0.00440002
97.4,6.90818,1.17986,-0.00570773
99.8,7.14103,1.18432,-0.00440207
102.2,7.37268,1.20411,-0.00439061
104.6,7.60173,1.21897,-0.00532135
107,7.83388,1.22718,-0.0063624
109.4,8.06531,1.23764,-0.00570999
111.8,8.29636,1.25305,-0.00703013
114.2,8.52438,1.26185,-0.00702
116.6,8.7563,1.26792,-0.00633639
119,8.98717,1.27347,-0.00834992
121.4,9.21626,1.2862,-0.00834
123.8,9.44648,1.29196,-0.00925132
126.2,9.67474,1.29005,-0.011313
128.6,9.90453,1.31108,-0.00966
131,10.131,1.31268,-0.00966001
133.4,10.3623,1.32286,-0.00992678
135.8,10.589,1.32297,-0.0107927
138.2,10.8174,1.34064,-0.0123
140.6,11.0448,1.33152,-0.01098
143,11.2723,1.33857,-0.0122833
145.4,11.4984,1.3392,-0.01361
147.8,11.7249,1.34724,-0.0135204
150.2,11.9519,1.35654,-0.0149377
152.6,12.1768,1.35991,-0.0136466
155,12.4041,1.36627,-0.014934
157.4,12.6304,1.36518,-0.0162595
159.8,12.8568,1.37404,-0.016609
162.2,13.0824,1.38293,-0.0165845
164.6,13.3098,1.37799,-0.0178999
167,13.5362,1.3945,-0.0175846
169.4,13.7625,1.40518,-0.0179003
171.8,13.9888,1.41647,-0.0182537
174.2,14.2145,1.41897,-0.0195609
176.6,14.4406,1.42305,-0.02053
179,14.6678,1.41734,-0.0205108
181.4,14.8948,1.41,-0.0222119
183.8,15.1201,1.41189,-0.0204902
186.2,15.3463,1.4219,-0.0218537
188.6,15.5717,1.42256,-0.0224846
191,15.798,1.42127,-0.02481
193.4,16.0229,1.42184,-0.02645
195.8,16.25,1.42852,-0.02645
198.2,16.4752,1.43134,-0.0277699
200.6,16.7015,1.42445,-0.02777
203,16.9266,1.42804,-0.02909
205.4,17.1517,1.43444,-0.0309674
207.8,17.3771,1.43379,-0.03173
210.2,17.6014,1.43062,-0.03403
212.6,17.8298,1.42942,-0.0343529
215,18.0552,1.43629,-0.03766
217.4,18.2816,1.43027,-0.0409499
219.8,18.5068,1.42214,-0.04227
222.2,18.7331,1.42421,-0.0462234
224.6,18.959,1.41269,-0.04884
227,19.1852,1.38167,-0.0528
229.4,19.4114,1.36617,-0.0554327
231.8,19.6369,1.35767,-0.0620466
234.2,19.8629,1.33918,-0.0673112
236.6,20.0887,1.3188,-0.0750931
239,20.3148,1.29178,-0.0804381
241.4,20.5415,1.26042,-0.0890128
243.8,20.7685,1.21433,-0.0960585
246.2,20.994,1.16877,-0.106266
248.6,21.2203,1.11871,-0.116699
251,21.449,1.35229,-0.129786
253.4,21.6803,1.63578,-0.146909
255.8,21.9085,1.70974,-0.16899
258.2,22.1351,1.7465,-0.189153
260.6,22.3633,1.77088,-0.209167
263,22.5908,1.80881,-0.232187
265.4,22.8167,1.85662,-0.259784
267.8,23.0465,1.91786,-0.287595
270.2,23.2745,1.98712,-0.32093
272.6,23.5039,2.07738,-0.3583
275,23.7326,2.19303,-0.399032
277.4,23.9601,2.32291,-0.44656
279.8,24.1908,2.49139,-0.501452
282.2,24.4215,2.68795,-0.562271
284.6,24.6514,2.90392,-0.633724
287,24.8823,3.13984,-0.71682
289.4,25.1134,3.34315,-0.81288
291.8,25.3437,3.50321,-0.921738
294.2,25.5733,3.56027,-1.04001
296.6,25.8002,3.52663,-1.16156
299,26.0284,3.44456,-1.29079
301.4,26.2554,3.3119,-1.41676
303.8,26.4832,3.1914,-1.54753
306.2,26.71,3.05382,-1.67301
308.6,26.9373,2.93231,-1.79194
311,27.1649,2.81811,-1.90248
313.4,27.3922,2.6509,-2.00247
315.8,27.618,2.43167,-2.09049
318.2,27.8443,2.21509,-2.16529
320.6,28.0712,2.00578,-2.23361
323,28.2987,1.80858,-2.29461
325.4,28.5241,1.63966,-2.34779
327.8,28.753,1.47101,-2.39465
330.2,28.9803,1.31113,-2.43846
332.6,29.208,1.16962,-2.47719
335,29.4363,1.0437,-2.51013
337.4,29.664,0.934594,-2.53985
339.8,29.8931,0.818023,-2.56738
342.2,30.1224,0.732362,-2.5874
344.6,30.3518,0.63595,-2.60867
347,30.5805,0.550883,-2.62512
349.4,30.8112,0.48225,-2.64228
351.8,31.0404,0.421535,-2.65268
354.2,31.2719,0.381877,-2.66364
356.6,31.5024,0.348327,-2.67332
359,31.733,0.330374,-2.68371
361.4,31.9646,0.305447,-2.69191
363.8,32.1958,0.28695,-2.69758
366.2,32.4272,0.286766,-2.70564
368.6,32.6583,0.288539,-2.71085
371,32.8886,0.290361,-2.71613
373.4,33.121,0.292498,-2.72008
375.8,33.352,0.296383,-2.72568
378.2,33.5841,0.30366,-2.73108
380.6,33.8161,0.311736,-2.73649
383,34.0487,0.324385,-2.74455
385.4,34.2805,0.324305,-2.75035
387.8,34.5148,0.336027,-2.7588
390.2,34.7463,0.334928,-2.76563
392.6,34.978,0.338801,-2.77401
395,35.212,0.332505,-2.78234
397.4,35.4444,0.331968,-2.79426
399.8,35.6782,0.33244,-2.80306
402.2,35.9113,0.314053,-2.81667
404.6,36.1444,0.321497,-2.82809
407,36.3773,0.311134,-2.84133
409.4,36.6105,0.295059,-2.85623
411.8,36.8427,0.294328,-2.87313
414.2,37.076,0.28299,-2.88694
416.6,37.3112,0.277074,-2.90677
419,37.5447,0.278289,-2.92424
421.4,37.7776,0.273873,-2.94488
423.8,38.0115,0.275913,-2.96764
426.2,38.245,0.281175,-2.99024
428.6,38.479,0.292275,-3.01597
431,38.7134,0.303328,-3.0402
433.4,38.9477,0.3257,-3.06769
435.8,39.1831,0.344538,-3.09428
438.2,39.4171,0.370313,-3.12458
440.6,39.6531,0.399486,-3.15515
443,39.8873,0.426421,-3.18332
445.4,40.1231,0.452184,-3.21391
447.8,40.3571,0.462552,-3.24225
450.2,40.5924,0.476157,-3.27112
452.6,40.8287,0.496502,-3.29965
455,41.064,0.497498,-3.32812
457.4,41.299,0.499294,-3.35656
459.8,41.5345,0.485425,-3.38381
462.2,41.7693,0.49464,-3.40962
464.6,42.0044,0.489468,-3.43368
467,42.2369,0.487257,-3.45887
469.4,42.4754,0.480642,-3.48278
471.8,42.7117,0.463227,-3.50485
474.2,42.9465,0.451729,-3.52892
476.6,43.1829,0.432756,-3.55061
479,43.4183,0.400385,-3.56948
481.4,43.6538,0.371563,-3.58733
483.8,43.89,0.332124,-3.6054
486.2,44.1264,0.303211,-3.62057
488.6,44.3635,0.271361,-3.63428
491,44.5996,0.241915,-3.64711
493.4,44.8373,0.222869,-3.65705
495.8,45.0741,0.194948,-3.66774
498.2,45.3104,0.176895,-3.67646
500.6,45.5454,0.153102,-3.68496
503,45.7843,0.136313,-3.69167
505.4,46.0205,0.118652,-3.69682
507.8,46.2578,0.104828,-3.70195
510.2,46.4963,0.0885722,-3.70594
512.6,46.7327,0.0889411,-3.70956
515,46.9687,0.0718878,-3.71362
517.4,47.2079,0.0667368,-3.71792
519.8,47.4453,0.0552364,-3.71922
522.2,47.6836,0.0468336,-3.72054
524.6,47.9209,0.0429278,-3.7235
527,48.1591,0.0415319,-3.72482
529.4,48.3974,0.0377016,-3.72614
531.8,48.6363,0.0407107,-3.72647
534.2,48.8743,0.0423022,-3.72778
536.6,49.1119,0.0332094,-3.7304
539,49.35,0.0330999,-3.73075
541.4,49.5876,0.0311534,-3.73074
543.8,49.8252,0.0222897,-3.73206
546.2,50.0637,0.0192336,-3.73074
548.6,50.3027,0.0131613,-3.73272
551,50.5413,0.00348164,-3.73338
553.4,50.78,-0.011361,-3.73601
555.8,51.0167,-0.0106677,-3.73469
558.2,51.2565,-0.0158709,-3.73469
560.6,51.4953,-0.0206693,-3.73733
563,51.7339,-0.026455,-3.73667
565.4,51.972,-0.0249251,-3.73668
567.8,52.2099,-0.0188267,-3.73733
570.2,52.4487,-0.0272141,-3.73865
572.6,52.6884,-0.0258038,-3.73735
575,52.927,-0.0255712,-3.73865
577.4,53.1661,-0.0314506,-3.73635
579.8,53.4064,-0.0320942,-3.73766
582.2,53.6454,-0.0319323,-3.73898
584.6,53.8853,-0.0438637,-3.7403
587,54.1252,-0.0408733,-3.74162
589.4,54.3639,-0.0441349,-3.7403
591.8,54.6034,-0.0470711,-3.74001
594.2,54.8434,-0.0479418,-3.7403
596.6,55.0838,-0.0593159,-3.73996
599,55.3223,-0.0522351,-3.74095
601.4,55.562,-0.0593496,-3.7421
603.8,55.8009,-0.0677043,-3.74029
606.2,56.041,-0.0683897,-3.74165
608.6,56.2814,-0.08653,-3.74161
611,56.5214,-0.0867775,-3.74194
613.4,56.7606,-0.0952982,-3.74162
615.8,57.0019,-0.0947052,-3.74261
618.2,57.2403,-0.0987335,-3.74369
620.6,57.4789,-0.118798,-3.74294
623,57.7188,-0.109015,-3.74293
625.4,57.9584,-0.123903,-3.74294
627.8,58.1972,-0.127339,-3.74293
630.2,58.4385,-0.132208,-3.74194
632.6,58.6796,-0.135946,-3.74326
635,58.9201,-0.143202,-3.74327
637.4,59.1613,-0.146614,-3.74328
639.8,59.4025,-0.152265,-3.74458
642.2,59.6438,-0.157545,-3.74326
644.6,59.8844,-0.15892,-3.74359
647,60.1268,-0.167416,-3.74359
649.4,60.3677,-0.170118,-3.74326
651.8,60.6064,-0.182477,-3.74425
654.2,60.85,-0.184808,-3.74558
656.6,61.0911,-0.187333,-3.74557
659,61.332,-0.193821,-3.74552
661.4,61.5723,-0.199104,-3.74556
663.8,61.8138,-0.205427,-3.74524
666.2,62.0557,-0.212881,-3.74523
668.6,62.2956,-0.218306,-3.74654
671,62.5371,-0.227116,-3.74557
673.4,62.7779,-0.216826,-3.74557
675.8,63.0185,-0.226036,-3.74674
678.2,63.26,-0.162886,-3.74689
680.6,63.5003,-0.161707,-3.74724
683,63.7417,-0.160128,-3.74786
685.4,63.9824,-0.164188,-3.74952
687.8,64.2249,-0.167126,-3.74919
690.2,64.4664,-0.159958,-3.74787
692.6,64.7076,-0.164457,-3.7482
695,64.9494,-0.180763,-3.7482
697.4,65.1911,-0.186987,-3.7482
699.8,65.4342,-0.190434,-3.74909
702.2,65.6731,-0.191846,-3.74821
704.6,65.9164,-0.192323,-3.74686
707,66.1604,-0.20205,-3.74951
709.4,66.4033,-0.204758,-3.74885
711.8,66.6448,-0.216639,-3.74951
714.2,66.8855,-0.2174,-3.75084
716.6,67.1296,-0.228233,-3.74952
719,67.3711,-0.228987,-3.75093
721.4,67.6121,-0.232508,-3.74951
723.8,67.8539,-0.227335,-3.7505
726.2,68.0969,-0.243752,-3.75179
728.6,68.3388,-0.234822,-3.75238
731,68.5781,-0.238968,-3.75205
733.4,68.8205,-0.227546,-3.75183
735.8,69.0635,-0.235598,-3.75117
738.2,69.3054,-0.238761,-3.75248
740,69.4849,-0.231882,-3.75116

File: Helmet_Tetrahedron_STA_N2_10KData_250513_R4.csv
Temp./C,Time/min,DSC/(mW/mg),Mass loss/mg
35.0,0.0,0.615219,-0.020511
37.4,0.324516,0.671534,-0.0185347
39.8,0.633474,0.714926,-0.0222358
42.2,0.930591,0.751413,-0.0207609
44.6,1.2178,0.78447,-0.0235113
47,1.49982,0.827066,-0.0218291
49.4,1.77652,0.858243,-0.0218009
51.8,2.0442,0.895114,-0.0222347
54.2,2.3092,0.934142,-0.021972
56.6,2.57004,0.964851,-0.0233138
59,2.82694,0.988097,-0.0229438
61.4,3.07848,0.983347,-0.0232802
63.8,3.32811,0.986342,-0.0230581
66.2,3.5749,0.983637,-0.0230711
68.6,3.82128,1.00305,-0.024363
71,4.06477,1.0065,-0.024434
73.4,4.30653,1.02167,-0.0246443
75.8,4.54873,1.03415,-0.0236233
78.2,4.79048,1.05599,-0.025675
80.6,5.02974,1.06911,-0.0256795
83,5.26796,1.08262,-0.0268575
85.4,5.50538,1.09224,-0.0267815
87.8,5.74119,1.09985,-0.0267905
90.2,5.97705,1.10785,-0.0267793
92.6,6.21143,1.11938,-0.0254702
95,6.44503,1.13078,-0.0254721
97.4,6.67754,1.1437,-0.0254772
99.8,6.91065,1.15407,-0.0269342
102.2,7.14213,1.16685,-0.0307586
104.6,7.37307,1.18228,-0.0294309
107,7.60469,1.19146,-0.02946
109.4,7.83473,1.20676,-0.0287601
111.8,8.06503,1.2192,-0.0313997
114.2,8.29654,1.2255,-0.0318404
116.6,8.527,1.2312,-0.0320668
119,8.75709,1.24471,-0.0320688
121.4,8.98673,1.25451,-0.0307395
123.8,9.21464,1.25499,-0.0346609
126.2,9.44546,1.26489,-0.0353517
128.6,9.67409,1.26729,-0.0360854
131,9.90234,1.26914,-0.0360748
133.4,10.1307,1.27471,-0.0346969
135.8,10.3585,1.28748,-0.0320542
138.2,10.5871,1.29984,-0.0378699
140.6,10.8139,1.30377,-0.0352402
143,11.0409,1.31181,-0.0365766
145.4,11.2673,1.31379,-0.0395186
147.8,11.493,1.31446,-0.03985
150.2,11.7201,1.33106,-0.0388554
152.6,11.9461,1.31726,-0.0401758
155,12.1719,1.3304,-0.04149
157.4,12.3989,1.32605,-0.0401796
159.8,12.6241,1.34499,-0.0415
162.2,12.8514,1.35498,-0.0421846
164.6,13.0767,1.35444,-0.0434592
167,13.3047,1.36382,-0.0457659
169.4,13.5316,1.38218,-0.0471
171.8,13.7579,1.3939,-0.0431483
174.2,13.9838,1.4004,-0.0431623
176.6,14.2106,1.40912,-0.0441419
179,14.4359,1.40312,-0.0458069
181.4,14.6612,1.40182,-0.0471
183.8,14.8885,1.39813,-0.0457883
186.2,15.1125,1.39364,-0.0457833
188.6,15.3392,1.3982,-0.051041
191,15.5649,1.39885,-0.0502469
193.4,15.79,1.3965,-0.05237
195.8,16.0158,1.40832,-0.0530303
198.2,16.2407,1.40233,-0.05303
200.6,16.4674,1.40014,-0.0526897
203,16.6925,1.3999,-0.0546387
205.4,16.9172,1.40575,-0.0572983
207.8,17.1433,1.40625,-0.0597848
210.2,17.3686,1.39052,-0.0586045
212.6,17.5946,1.39859,-0.0625792
215,17.8201,1.38702,-0.06455
217.4,18.0461,1.38736,-0.0681664
219.8,18.273,1.39101,-0.0734797
222.2,18.4987,1.38876,-0.0748098
224.6,18.7253,1.37768,-0.07477
227,18.9509,1.35488,-0.0813477
229.4,19.1766,1.34277,-0.08673
231.8,19.4023,1.32355,-0.0932802
234.2,19.6293,1.29954,-0.094604
236.6,19.8541,1.27961,-0.102944
239,20.0803,1.25477,-0.111167
241.4,20.3059,1.2216,-0.119331
243.8,20.5315,1.18073,-0.127801
246.2,20.758,1.14061,-0.136909
248.6,20.981,1.09707,-0.148806
251,21.2127,1.31869,-0.164884
253.4,21.4438,1.60676,-0.181485
255.8,21.6716,1.67748,-0.20524
258.2,21.8994,1.70439,-0.223831
260.6,22.1276,1.73245,-0.247356
263,22.3559,1.76019,-0.275032
265.4,22.5823,1.80888,-0.301061
267.8,22.8106,1.86978,-0.331413
270.2,23.0398,1.95577,-0.365673
272.6,23.2647,2.0366,-0.406233
275,23.4966,2.14416,-0.44978
277.4,23.7263,2.29299,-0.495484
279.8,23.9567,2.47346,-0.555301
282.2,24.187,2.68367,-0.618441
284.6,24.4179,2.94188,-0.696305
287,24.6497,3.21756,-0.785394
289.4,24.8818,3.45392,-0.890379
291.8,25.1126,3.61348,-1.0053
294.2,25.3417,3.66187,-1.13125
296.6,25.5692,3.55702,-1.26354
299,25.7951,3.37397,-1.39399
301.4,26.0215,3.17384,-1.52388
303.8,26.2471,2.97805,-1.64693
306.2,26.4739,2.80778,-1.76328
308.6,26.7007,2.64733,-1.87246
311,26.9293,2.62808,-1.97618
313.4,27.1565,2.43296,-2.06424
315.8,27.3814,2.24285,-2.13928
318.2,27.6088,2.05472,-2.20835
320.6,27.8348,1.87792,-2.27021
323,28.0618,1.70498,-2.32779
325.4,28.2895,1.55005,-2.37924
327.8,28.5156,1.39316,-2.42235
330.2,28.7435,1.25125,-2.46357
332.6,28.9721,1.10827,-2.49824
335,29.1995,0.987991,-2.52932
337.4,29.4286,0.869913,-2.55959
339.8,29.6569,0.761407,-2.58499
342.2,29.887,0.677746,-2.61046
344.6,30.115,0.596917,-2.62924
347,30.3446,0.511515,-2.64647
349.4,30.574,0.436443,-2.65836
351.8,30.8037,0.377824,-2.67282
354.2,31.0351,0.330561,-2.68184
356.6,31.2632,0.285336,-2.69167
359,31.4962,0.262986,-2.70244
361.4,31.7272,0.25375,-2.7087
363.8,31.9588,0.239819,-2.71314
366.2,32.1892,0.229596,-2.71701
368.6,32.4214,0.229095,-2.72787
371,32.6534,0.237486,-2.7317
373.4,32.8843,0.238504,-2.73851
375.8,33.1164,0.249541,-2.74214
378.2,33.3492,0.259026,-2.74797
380.6,33.5815,0.260608,-2.75447
383,33.8138,0.270623,-2.75831
385.4,34.0466,0.276279,-2.7652
387.8,34.279,0.286377,-2.7694
390.2,34.509,0.283553,-2.77888
392.6,34.7444,0.28437,-2.78619
395,34.9781,0.295292,-2.79633
397.4,35.2119,0.287974,-2.80618
399.8,35.4442,0.293593,-2.81825
402.2,35.6779,0.29258,-2.82754
404.6,35.9092,0.288916,-2.84075
407,36.1444,0.285183,-2.84914
409.4,36.3773,0.295159,-2.86418
411.8,36.611,0.285166,-2.8806
414.2,36.8428,0.278908,-2.89765
416.6,37.0778,0.269573,-2.91677
419,37.3108,0.255772,-2.93703
421.4,37.5457,0.269945,-2.95848
423.8,37.7786,0.263111,-2.97632
426.2,38.0124,0.276945,-2.99708
428.6,38.2465,0.294415,-3.02572
431,38.4811,0.309497,-3.04879
433.4,38.7159,0.328921,-3.07468
435.8,38.952,0.351144,-3.10414
438.2,39.1867,0.384472,-3.13178
440.6,39.4218,0.408121,-3.15965
443,39.6575,0.440079,-3.18939
445.4,39.8925,0.467321,-3.22265
447.8,40.1272,0.484472,-3.24748
450.2,40.3626,0.51196,-3.2786
452.6,40.5965,0.531625,-3.30647
455,40.8327,0.537792,-3.33401
457.4,41.0692,0.541069,-3.3594
459.8,41.3036,0.533513,-3.38906
462.2,41.538,0.531752,-3.41475
464.6,41.7742,0.532487,-3.43795
467,42.0079,0.518196,-3.46511
469.4,42.2462,0.520024,-3.48503
471.8,42.4826,0.495994,-3.51042
474.2,42.7174,0.486353,-3.53008
476.6,42.9528,0.464017,-3.55237
479,43.1895,0.445167,-3.57098
481.4,43.4235,0.424453,-3.58986
483.8,43.6605,0.409149,-3.60587
486.2,43.8961,0.386964,-3.62343
488.6,44.1334,0.37043,-3.63493
491,44.3688,0.356091,-3.64968
493.4,44.6055,0.336492,-3.65772
495.8,44.8411,0.320743,-3.6655
498.2,45.0779,0.307077,-3.67978
500.6,45.3145,0.307385,-3.68684
503,45.5519,0.295862,-3.69299
505.4,45.7888,0.288108,-3.7015
507.8,46.0268,0.289128,-3.70183
510.2,46.2641,0.283165,-3.70944
512.6,46.501,0.275851,-3.71341
515,46.7382,0.270888,-3.71197
517.4,46.9758,0.26937,-3.71335
519.8,47.213,0.277654,-3.71732
522.2,47.4522,0.27697,-3.7217
524.6,47.6877,0.287978,-3.72202
527,47.9241,0.296316,-3.72524
529.4,48.1632,0.300567,-3.72657
531.8,48.4015,0.309659,-3.72739
534.2,48.6399,0.311973,-3.7291
536.6,48.8776,0.315464,-3.72648
539,49.1147,0.315371,-3.72826
541.4,49.3536,0.329023,-3.7304
543.8,49.5908,0.331674,-3.73437
546.2,49.8297,0.335878,-3.73305
548.6,50.0687,0.337651,-3.73437
551,50.3073,0.35312,-3.73305
553.4,50.5451,0.356966,-3.73447
555.8,50.7859,0.360254,-3.73513
558.2,51.0233,0.361516,-3.7316
560.6,51.2602,0.36708,-3.73344
563,51.5012,0.365137,-3.73687
565.4,51.7403,0.356506,-3.73527
567.8,51.9779,0.364411,-3.73393
570.2,52.2178,0.359046,-3.73771
572.6,52.4574,0.344103,-3.73645
575,52.6961,0.334254,-3.73942
577.4,52.9346,0.325955,-3.73857
579.8,53.1736,0.317187,-3.73667
582.2,53.4145,0.311093,-3.738
584.6,53.6525,0.304579,-3.73868
587,53.8929,0.308218,-3.73858
589.4,54.1322,0.294868,-3.73866
591.8,54.3716,0.274528,-3.74111
594.2,54.6126,0.270029,-3.73962
596.6,54.8515,0.268707,-3.73953
599,55.0914,0.256772,-3.73823
601.4,55.3311,0.240633,-3.74085
603.8,55.5698,0.236936,-3.74085
606.2,55.8098,0.214178,-3.73788
608.6,56.0495,0.20309,-3.74218
611,56.2894,0.191849,-3.74053
613.4,56.5294,0.174202,-3.74216
615.8,56.7695,0.156496,-3.73952
618.2,57.0097,0.138523,-3.74072
620.6,57.2505,0.141075,-3.73823
623,57.4895,0.135205,-3.74167
625.4,57.7295,0.129201,-3.74052
627.8,57.9699,0.115635,-3.74222
630.2,58.2106,0.102222,-3.74085
632.6,58.4512,0.0933693,-3.74216
635,58.692,0.0938148,-3.74164
637.4,58.9318,0.0911947,-3.74334
639.8,59.1721,0.0837308,-3.74118
642.2,59.4123,0.0708854,-3.74124
644.6,59.6528,0.0774867,-3.74249
647,59.894,0.0725888,-3.74193
649.4,60.1342,0.0643599,-3.74385
651.8,60.3739,0.0583268,-3.73986
654.2,60.6158,0.0629522,-3.73989
656.6,60.8546,0.0614871,-3.74251
659,61.0969,0.0438313,-3.74254
661.4,61.3384,0.0896311,-3.74536
663.8,61.5786,0.0889019,-3.74282
666.2,61.8195,0.0773879,-3.74282
668.6,62.0598,0.0738319,-3.74282
671,62.3002,0.0608681,-3.74414
673.4,62.541,0.0461027,-3.74025
675.8,62.7823,0.0317558,-3.74479
678.2,63.0222,0.0200013,-3.74381
680.6,63.2637,0.0200099,-3.73962
683,63.5042,0.0264435,-3.74052
685.4,63.7451,0.00964432,-3.74052
687.8,63.9873,0.00460241,-3.7449
690.2,64.2293,-0.000830195,-3.74372
692.6,64.4699,-0.0123989,-3.74512
695,64.7132,-0.00732571,-3.74238
697.4,64.9548,-0.0172477,-3.745
699.8,65.197,-0.0306339,-3.746
702.2,65.4383,-0.0314599,-3.74502
704.6,65.6805,-0.0468156,-3.74326
707,65.9212,-0.0522969,-3.74326
709.4,66.1635,-0.0536223,-3.74194
711.8,66.4042,-0.0557311,-3.74194
714.2,66.6462,-0.061145,-3.74458
716.6,66.8888,-0.0716293,-3.74558
719,67.1303,-0.0738645,-3.74458
721.4,67.3728,-0.0666152,-3.7459
723.8,67.6148,-0.0794126,-3.74754
726.2,67.8561,-0.0734671,-3.74393
728.6,68.0995,-0.0794745,-3.74752
731,68.3415,-0.0872272,-3.74491
733.4,68.583,-0.0755579,-3.74897
735.8,68.8264,-0.0669504,-3.7437
738.2,69.068,-0.0624719,-3.74633
740,69.2513,-0.0727307,-3.74499