Folder: fsri_materials_database/01_Data/Helmet_Tetrahedron/STA/N2/10K_min

File: Helmet_Tetrahedron_STA_N2_10KData_240226_R1.csv
Temp./C,Time/min,DSC/(mW/mg),Mass loss/mg
60.0,0.0,0.80025,-0.00735664
62.3,0.260697,0.842404,-0.00540649
64.6,0.515243,0.862344,-0.00790354
66.9,0.761543,0.88542,-0.0073743
69.2,1.00631,0.897386,-0.00649108
71.5,1.25058,0.906468,-0.00643617
73.8,1.49127,0.910306,-0.00908476
76.1,1.73059,0.9233,-0.00780011
78.4,1.96848,0.937306,-0.00781667
80.7,2.20599,0.951848,-0.007791
83,2.44051,0.953843,-0.00919361
85.3,2.675,0.971229,-0.0100985
87.6,2.90618,0.983553,-0.00910056
89.9,3.13755,0.986596,-0.00886494
92.2,3.36654,1.01016,-0.00911
94.5,3.59465,1.02101,-0.0104287
96.8,3.8229,1.02428,-0.0091666
99.1,4.0486,1.03567,-0.01043
101.4,4.27533,1.04784,-0.0104295
103.7,4.50006,1.05318,-0.0107523
106,4.72398,1.0743,-0.01108
108.3,4.95029,1.07565,-0.011735
110.6,5.17494,1.08329,-0.0124006
112.9,5.39858,1.08638,-0.0120696
115.2,5.62199,1.09413,-0.0130581
117.5,5.84618,1.10744,-0.0119363
119.8,6.06881,1.11253,-0.0129583
122.1,6.29228,1.11679,-0.0130958
124.4,6.51445,1.12604,-0.0124147
126.7,6.73783,1.13566,-0.0137199
129,6.95965,1.13498,-0.0150933
131.3,7.18025,1.13599,-0.0137168
133.6,7.40415,1.1292,-0.0143776
135.9,7.62584,1.14432,-0.01372
138.2,7.84638,1.14695,-0.0163389
140.5,8.06681,1.1559,-0.0150386
142.8,8.28838,1.1538,-0.0177226
145.1,8.50636,1.15995,-0.01636
147.4,8.72785,1.15559,-0.0173411
149.7,8.94925,1.16206,-0.017723
152,9.16844,1.16407,-0.018
154.3,9.38784,1.17034,-0.01833
156.6,9.60429,1.16147,-0.0182383
158.9,9.82536,1.16579,-0.0180101
161.2,10.0451,1.17174,-0.0193229
163.5,10.2639,1.17599,-0.01932
165.8,10.4834,1.1743,-0.02064
168.1,10.7023,1.18795,-0.0219601
170.4,10.922,1.1733,-0.0203086
172.7,11.1405,1.18513,-0.0213008
175,11.3596,1.19144,-0.02163
177.3,11.578,1.19064,-0.0225866
179.6,11.7979,1.19399,-0.0232717
181.9,12.0155,1.19073,-0.02459
184.2,12.2336,1.19887,-0.02558
186.5,12.4534,1.19974,-0.02591
188.8,12.6729,1.19113,-0.02723
191.1,12.891,1.18726,-0.0282142
193.4,13.1094,1.19276,-0.0288671
195.7,13.3276,1.18961,-0.03018
198,13.546,1.18466,-0.0305096
200.3,13.7656,1.185,-0.0318289
202.6,13.9844,1.17563,-0.0305099
204.9,14.2018,1.17065,-0.0344703
207.2,14.4203,1.16732,-0.0357904
209.5,14.6371,1.16031,-0.0371329
211.8,14.8561,1.1592,-0.039736
214.1,15.0729,1.15463,-0.0423933
216.4,15.292,1.15145,-0.0449944
218.7,15.5097,1.15304,-0.0476284
221,15.7262,1.14017,-0.0482978
223.3,15.9462,1.13367,-0.0509303
225.6,16.1651,1.12268,-0.0556036
227.9,16.3816,1.1082,-0.0588402
230.2,16.6008,1.08811,-0.0631244
232.5,16.8183,1.06908,-0.0677259
234.8,17.0364,1.04976,-0.0750969
237.1,17.2558,1.01569,-0.0779387
239.4,17.473,1.00274,-0.0845115
241.7,17.6914,1.01592,-0.0913795
244,17.913,1.14643,-0.100117
246.3,18.1317,1.26118,-0.111551
248.6,18.348,1.30245,-0.123351
250.9,18.5694,1.33756,-0.137695
253.2,18.7881,1.37096,-0.152113
255.5,19.0078,1.40239,-0.167546
257.8,19.227,1.42538,-0.182214
260.1,19.4453,1.4602,-0.202196
262.4,19.6631,1.5115,-0.223682
264.7,19.8822,1.55088,-0.246213
267,20.1022,1.60455,-0.27146
269.3,20.3205,1.64728,-0.301168
271.6,20.5409,1.71494,-0.330162
273.9,20.7605,1.78396,-0.366269
276.2,20.98,1.85147,-0.404424
278.5,21.2,1.92246,-0.449381
280.8,21.4197,2.0108,-0.497116
283.1,21.6407,2.10644,-0.551045
285.4,21.8615,2.2111,-0.609502
287.7,22.083,2.31644,-0.674426
290,22.3053,2.43142,-0.744904
292.3,22.5263,2.5343,-0.822649
294.6,22.7475,2.64058,-0.904606
296.9,22.9672,2.75064,-0.992235
299.2,23.1896,2.85255,-1.08348
301.5,23.4107,2.96818,-1.18172
303.8,23.6298,3.04253,-1.27706
306.1,23.8509,3.04552,-1.3749
308.4,24.0691,2.92228,-1.46674
310.7,24.2862,2.75581,-1.5544
313,24.5023,2.56154,-1.63146
315.3,24.7218,2.36518,-1.70403
317.6,24.9393,2.1669,-1.7678
319.9,25.1571,1.95405,-1.82532
322.2,25.3753,1.75802,-1.87549
324.5,25.5927,1.5669,-1.92183
326.8,25.8116,1.38362,-1.96182
329.1,26.0297,1.20576,-1.99857
331.4,26.2479,1.03874,-2.0293
333.7,26.466,0.890215,-2.05804
336,26.6846,0.73666,-2.08311
338.3,26.9028,0.634302,-2.10326
340.6,27.1219,0.557658,-2.12442
342.9,27.3428,0.478163,-2.14107
345.2,27.5635,0.417727,-2.15677
347.5,27.7841,0.374577,-2.1708
349.8,28.0042,0.351959,-2.18486
352.1,28.2261,0.328695,-2.19736
354.4,28.4469,0.310451,-2.21001
356.7,28.6679,0.31044,-2.22133
359,28.8902,0.302435,-2.2312
361.3,29.1116,0.302452,-2.24237
363.6,29.3329,0.308424,-2.254
365.9,29.5546,0.30783,-2.26559
368.2,29.7765,0.313219,-2.27638
370.5,30.0001,0.320942,-2.29043
372.8,30.2227,0.332015,-2.30119
375.1,30.4461,0.348076,-2.3161
377.4,30.6684,0.355719,-2.32814
379.7,30.8916,0.365487,-2.34358
382,31.1149,0.376072,-2.35805
384.3,31.3374,0.391767,-2.3752
386.6,31.5607,0.387524,-2.39226
388.9,31.7832,0.383834,-2.41027
391.2,32.007,0.387351,-2.43023
393.5,32.2291,0.383911,-2.44943
395.8,32.4537,0.372537,-2.47087
398.1,32.678,0.360498,-2.49171
400.4,32.9011,0.33629,-2.51408
402.7,33.1244,0.307419,-2.53588
405,33.3468,0.281719,-2.55989
407.3,33.5694,0.240722,-2.58377
409.6,33.7928,0.19831,-2.60628
411.9,34.0158,0.150727,-2.62879
414.2,34.2383,0.107911,-2.64994
416.5,34.4631,0.066334,-2.67044
418.8,34.6869,0.0192492,-2.69163
421.1,34.9098,-0.0128985,-2.71153
423.4,35.1322,-0.0419894,-2.73021
425.7,35.3585,-0.0749098,-2.74798
428,35.5822,-0.101343,-2.76626
430.3,35.8062,-0.121749,-2.7859
432.6,36.0307,-0.14089,-2.8047
434.9,36.2544,-0.177854,-2.8237
437.2,36.4786,-0.190709,-2.84155
439.5,36.7038,-0.201247,-2.86131
441.8,36.9283,-0.200695,-2.88149
444.1,37.153,-0.190935,-2.90201
446.4,37.3781,-0.172714,-2.92431
448.7,37.6048,-0.149855,-2.94746
451,37.8308,-0.113297,-2.97098
453.3,38.056,-0.069215,-2.99574
455.6,38.2828,-0.0228934,-3.01979
457.9,38.5099,0.00988281,-3.04524
460.2,38.7368,0.0418643,-3.06843
462.5,38.9622,0.066338,-3.09314
464.8,39.1885,0.0740865,-3.11749
467.1,39.415,0.0869111,-3.13862
469.4,39.6416,0.0828863,-3.1587
471.7,39.8675,0.073388,-3.17986
474,40.0927,0.070087,-3.19898
476.3,40.3194,0.0689961,-3.2181
478.6,40.545,0.0503365,-3.23523
480.9,40.771,0.031718,-3.25196
483.2,40.9961,0.0260454,-3.26684
485.5,41.222,0.0107205,-3.27963
487.8,41.4482,0.00240077,-3.28946
490.1,41.6742,-0.00728219,-3.30189
492.4,41.8998,-0.0144656,-3.31239
494.7,42.1276,-0.0183525,-3.31973
497,42.3535,-0.031831,-3.32697
499.3,42.5793,-0.0404205,-3.33569
501.6,42.8065,-0.0420018,-3.34143
503.9,43.0325,-0.046697,-3.34835
506.2,43.2589,-0.046551,-3.35211
508.5,43.487,-0.046448,-3.35604
510.8,43.7131,-0.0472533,-3.36134
513.1,43.9407,-0.0462152,-3.36387
515.4,44.1669,-0.044941,-3.36791
517.7,44.3946,-0.0434379,-3.37187
520,44.6211,-0.049244,-3.3739
522.3,44.8486,-0.0436871,-3.37888
524.6,45.0753,-0.0393026,-3.3801
526.9,45.3023,-0.0393991,-3.38145
529.2,45.5299,-0.0382057,-3.38274
531.5,45.7574,-0.0278013,-3.38537
533.8,45.9858,-0.0253053,-3.38696
536.1,46.2142,-0.0122142,-3.38702
538.4,46.4413,-0.00572667,-3.38998
540.7,46.667,-0.00230962,-3.3913
543,46.8974,0.00659119,-3.39394
545.3,47.125,0.0136198,-3.39394
547.6,47.3528,0.0108858,-3.3956
549.9,47.5825,0.0156248,-3.39591
552.2,47.809,0.0187744,-3.39821
554.5,48.0374,0.0144508,-3.39822
556.8,48.2657,0.0120837,-3.40085
559.1,48.4927,0.00612751,-3.39954
561.4,48.721,0.0119117,-3.40193
563.7,48.9498,0.00933546,-3.40145
566,49.1772,-0.000409981,-3.40512
568.3,49.4061,0.00368368,-3.40382
570.6,49.6324,0.00591202,-3.40501
572.9,49.8624,0.00525595,-3.40612
575.2,50.091,-0.000226011,-3.40744
577.5,50.3188,0.000876699,-3.40767
579.8,50.5486,0.00038565,-3.40843
582.1,50.7759,-0.00622752,-3.40842
584.4,51.0047,-0.00252632,-3.40842
586.7,51.2323,-0.0008748,-3.41106
589,51.4608,-0.0130457,-3.41017
591.3,51.6891,-0.00728374,-3.4114
593.6,51.9175,-0.0102409,-3.41271
595.9,52.1445,-0.0220955,-3.41271
598.2,52.3733,-0.0256472,-3.41403
600.5,52.6024,-0.0342566,-3.41527
602.8,52.8294,-0.0472853,-3.41551
605.1,53.058,-0.0430017,-3.41535
607.4,53.2871,-0.0668051,-3.41666
609.7,53.5165,-0.0694799,-3.41798
612,53.7462,-0.0735707,-3.41733
614.3,53.9744,-0.0897865,-3.41831
616.6,54.2019,-0.095202,-3.41962
618.9,54.4322,-0.0936293,-3.41901
621.2,54.6622,-0.101261,-3.42127
623.5,54.8911,-0.116278,-3.42226
625.8,55.1198,-0.121184,-3.42259
628.1,55.3498,-0.131977,-3.4239
630.4,55.5791,-0.140746,-3.42421
632.7,55.8085,-0.160666,-3.42489
635,56.0372,-0.164338,-3.42424
637.3,56.2663,-0.17635,-3.42556
639.6,56.4969,-0.179511,-3.42687
641.9,56.7263,-0.188752,-3.42654
644.2,56.9556,-0.196042,-3.42656
646.5,57.1838,-0.206802,-3.42819
648.8,57.4145,-0.212896,-3.43055
651.1,57.6471,-0.209462,-3.42884
653.4,57.8757,-0.211827,-3.42983
655.7,58.1062,-0.216906,-3.4305
658,58.3353,-0.230095,-3.43181
660.3,58.5648,-0.226419,-3.43313
662.6,58.7955,-0.225909,-3.43379
664.9,59.0261,-0.235461,-3.43247
667.2,59.2556,-0.231239,-3.43411
669.5,59.4881,-0.243263,-3.4351
671.8,59.7198,-0.238548,-3.43512
674.1,59.952,-0.242173,-3.43511
676.4,60.1824,-0.239848,-3.43642
678.7,60.4144,-0.245322,-3.43741
681,60.6456,-0.253193,-3.43873
683.3,60.8768,-0.258332,-3.43873
685.6,61.1087,-0.259737,-3.43939
687.9,61.3398,-0.261277,-3.43938
690.2,61.5706,-0.26365,-3.44129
692.5,61.8017,-0.261409,-3.44136
694.8,62.0335,-0.263669,-3.44169
697.1,62.2667,-0.272978,-3.44207
699.4,62.4987,-0.274085,-3.44268
701.7,62.7309,-0.284011,-3.44331
704,62.9634,-0.28974,-3.44334
706.3,63.1949,-0.296149,-3.44334
708.6,63.4267,-0.300261,-3.44532
710.9,63.6592,-0.29642,-3.44502
713.2,63.8911,-0.307053,-3.44558
715.5,64.1223,-0.303074,-3.44827
717.8,64.3555,-0.321786,-3.44828
720.1,64.5881,-0.311586,-3.44696
722.4,64.8203,-0.325505,-3.44795
724.7,65.0559,-0.331319,-3.44926
727,65.2879,-0.330682,-3.44926
729.3,65.5218,-0.343493,-3.44961
731.6,65.7551,-0.352582,-3.44795
733.9,65.9872,-0.355948,-3.44964
736.2,66.2202,-0.36676,-3.44959
738.5,66.4539,-0.37012,-3.45124
740,66.6063,-0.37534,-3.45124

File: Helmet_Tetrahedron_STA_N2_10KData_250508_R2.csv
Temp./C,Time/min,DSC/(mW/mg),Mass loss/mg
35.0,0.0,0.492876,-0.0210597
37.4,0.410261,0.576397,-0.0150946
39.8,0.770595,0.637794,-0.0210797
42.2,1.10639,0.698422,-0.011667
44.6,1.42054,0.738486,-0.0121859
47,1.72565,0.79145,-0.00925811
49.4,2.01563,0.828872,-0.00785206
51.8,2.30083,0.869029,-0.00979555
54.2,2.57733,0.906937,-0.0100036
56.6,2.84668,0.944042,-0.00892456
59,3.11186,0.959828,-0.00813009
61.4,3.36858,0.975382,-0.00680866
63.8,3.62547,0.972389,-0.00703994
66.2,3.87777,0.983777,-0.00719114
68.6,4.12664,0.984606,-0.00573061
71,4.37498,0.995278,-0.00717513
73.4,4.62107,1.01698,-0.0059293
75.8,4.86558,1.02876,-0.00560029
78.2,5.11032,1.05054,-0.00695317
80.6,5.35024,1.05974,-0.00567505
83,5.5925,1.07521,-0.00690815
85.4,5.83117,1.0947,-0.0105831
87.8,6.06935,1.10105,-0.00648817
90.2,6.30584,1.11727,-0.00673901
92.6,6.54098,1.12841,-0.00919714
95,6.77422,1.14482,-0.00803488
97.4,7.00761,1.15622,-0.00758897
99.8,7.24015,1.17165,-0.007344
102.2,7.47153,1.17767,-0.00791003
104.6,7.703,1.19294,-0.00658442
107,7.93413,1.20247,-0.00791552
109.4,8.16487,1.21193,-0.00883657
111.8,8.39553,1.22497,-0.00789276
114.2,8.62721,1.2343,-0.0104936
116.6,8.85624,1.24455,-0.00987509
119,9.08628,1.25749,-0.00823003
121.4,9.31638,1.26144,-0.00998017
123.8,9.54562,1.26673,-0.0101648
126.2,9.77503,1.27835,-0.0095501
128.6,10.0034,1.28672,-0.00952656
131,10.2319,1.28877,-0.0108671
133.4,10.4592,1.28664,-0.01087
135.8,10.6874,1.29842,-0.0105377
138.2,10.9152,1.31237,-0.01218
140.6,11.142,1.31747,-0.0121901
143,11.3695,1.32154,-0.01252
145.4,11.596,1.32344,-0.0125208
147.8,11.8209,1.32874,-0.0141606
150.2,12.0473,1.33226,-0.0137814
152.6,12.2723,1.34105,-0.0135098
155,12.4997,1.34718,-0.0148133
157.4,12.7236,1.35765,-0.01482
159.8,12.95,1.36032,-0.0154026
162.2,13.1755,1.37714,-0.0156376
164.6,13.4015,1.38381,-0.0181123
167,13.6271,1.38342,-0.01679
169.4,13.8542,1.38789,-0.0167915
171.8,14.0786,1.38504,-0.0164677
174.2,14.3043,1.39323,-0.0194739
176.6,14.529,1.39147,-0.018444
179,14.7558,1.38927,-0.0192415
181.4,14.9809,1.38635,-0.01976
183.8,15.2058,1.39092,-0.0209653
186.2,15.4315,1.38267,-0.02108
188.6,15.6571,1.39234,-0.02107
191,15.882,1.38628,-0.0230209
193.4,16.1075,1.38073,-0.0233722
195.8,16.333,1.37826,-0.0233916
198.2,16.5583,1.38805,-0.0247
200.6,16.7832,1.38644,-0.0243696
203,17.009,1.38931,-0.0256917
205.4,17.2339,1.38602,-0.0280004
207.8,17.4602,1.37784,-0.0270784
210.2,17.6847,1.3816,-0.0309593
212.6,17.9101,1.3775,-0.0322703
215,18.1353,1.37631,-0.03491
217.4,18.3623,1.38031,-0.03623
219.8,18.5867,1.37437,-0.0397795
222.2,18.8122,1.35881,-0.0418344
224.6,19.0378,1.34148,-0.0451302
227,19.2639,1.31904,-0.0469754
229.4,19.4903,1.30863,-0.0506875
231.8,19.7161,1.28424,-0.0563245
234.2,19.94,1.25504,-0.0609349
236.6,20.1676,1.23985,-0.0662048
239,20.3937,1.2063,-0.0710921
241.4,20.6209,1.17266,-0.0790226
243.8,20.8474,1.13254,-0.0869447
246.2,21.0745,1.07822,-0.0958047
248.6,21.2977,1.03444,-0.106443
251,21.5296,1.2407,-0.116013
253.4,21.7595,1.50723,-0.134036
255.8,21.9873,1.58982,-0.153009
258.2,22.2155,1.61851,-0.171609
260.6,22.4434,1.65151,-0.192457
263,22.6704,1.66818,-0.214101
265.4,22.8981,1.71592,-0.238599
267.8,23.1275,1.77491,-0.267663
270.2,23.3549,1.83082,-0.298679
272.6,23.5839,1.91062,-0.336295
275,23.8094,2.01434,-0.369292
277.4,24.0412,2.14451,-0.41733
279.8,24.273,2.30559,-0.468319
282.2,24.5026,2.48662,-0.528882
284.6,24.7344,2.68573,-0.598765
287,24.9649,2.90387,-0.679245
289.4,25.1952,3.09286,-0.774332
291.8,25.4249,3.22799,-0.878977
294.2,25.6553,3.29928,-0.993977
296.6,25.883,3.27839,-1.1162
299,26.1102,3.19797,-1.24228
301.4,26.3375,3.09244,-1.37083
303.8,26.5654,2.98416,-1.5027
306.2,26.7925,2.86062,-1.63259
308.6,27.0199,2.73747,-1.75717
311,27.2489,2.68879,-1.87276
313.4,27.4744,2.4667,-1.97836
315.8,27.7024,2.23514,-2.06624
318.2,27.9285,2.01563,-2.14546
320.6,28.1543,1.82411,-2.21538
323,28.3825,1.62066,-2.27741
325.4,28.6105,1.43884,-2.33197
327.8,28.8382,1.25607,-2.38105
330.2,29.0665,1.09059,-2.42629
332.6,29.294,0.957272,-2.46338
335,29.5221,0.828475,-2.49632
337.4,29.7509,0.69674,-2.52704
339.8,29.9808,0.57806,-2.55196
342.2,30.2089,0.484307,-2.57502
344.6,30.4382,0.385967,-2.59457
347,30.6675,0.307217,-2.61
349.4,30.8942,0.247898,-2.62489
351.8,31.1264,0.178126,-2.63743
354.2,31.3575,0.124019,-2.64772
356.6,31.5872,0.0873404,-2.65617
359,31.8181,0.0708931,-2.66568
361.4,32.0497,0.0462868,-2.67343
363.8,32.281,0.0378989,-2.6812
366.2,32.5119,0.0271567,-2.68586
368.6,32.7437,0.0274212,-2.69111
371,32.9751,0.02561,-2.69701
373.4,33.2074,0.0348329,-2.7022
375.8,33.4385,0.0473796,-2.70855
378.2,33.6714,0.043423,-2.71251
380.6,33.9041,0.0552689,-2.71898
383,34.136,0.0622855,-2.72602
385.4,34.3686,0.0646467,-2.7316
387.8,34.6008,0.0747246,-2.73773
390.2,34.8338,0.0725929,-2.74391
392.6,35.0653,0.0731274,-2.7527
395,35.299,0.0781465,-2.76131
397.4,35.5314,0.0815229,-2.77168
399.8,35.7641,0.06961,-2.78208
402.2,35.9971,0.0670722,-2.79221
404.6,36.23,0.0553826,-2.806
407,36.4625,0.0454574,-2.82047
409.4,36.6964,0.0478182,-2.8342
411.8,36.9298,0.034075,-2.84837
414.2,37.1628,0.0362357,-2.8658
416.6,37.3966,0.0305581,-2.8824
419,37.6305,0.0277285,-2.90236
421.4,37.8642,0.0245362,-2.92206
423.8,38.0986,0.0325448,-2.94221
426.2,38.3325,0.0365889,-2.96678
428.6,38.5667,0.0527347,-2.99042
431,38.802,0.0502941,-3.01641
433.4,39.0345,0.0759666,-3.04397
435.8,39.2693,0.0978368,-3.07112
438.2,39.504,0.127493,-3.09931
440.6,39.7386,0.152884,-3.12867
443,39.9726,0.184069,-3.15685
445.4,40.208,0.214115,-3.18483
447.8,40.4434,0.220039,-3.21466
450.2,40.6787,0.256931,-3.2409
452.6,40.9143,0.253173,-3.27016
455,41.1478,0.2472,-3.29851
457.4,41.3833,0.239654,-3.32517
459.8,41.6199,0.229964,-3.35079
462.2,41.8539,0.227322,-3.37665
464.6,42.0887,0.213053,-3.40232
467,42.3247,0.218906,-3.42835
469.4,42.5608,0.205297,-3.45055
471.8,42.7963,0.187217,-3.47344
474.2,43.0316,0.173854,-3.49563
476.6,43.2676,0.155859,-3.51699
479,43.5045,0.135819,-3.53644
481.4,43.7393,0.104177,-3.55294
483.8,43.9753,0.07542,-3.56983
486.2,44.2119,0.0617219,-3.58562
488.6,44.4477,0.0541867,-3.60048
491,44.6846,0.03218,-3.61248
493.4,44.9203,0.00788936,-3.62346
495.8,45.1553,-0.0180152,-3.63396
498.2,45.3941,-0.0365227,-3.6417
500.6,45.6303,-0.0505859,-3.649
503,45.8676,-0.0583328,-3.65591
505.4,46.1042,-0.0695957,-3.66325
507.8,46.3401,-0.070229,-3.66753
510.2,46.5777,-0.0730061,-3.67278
512.6,46.8145,-0.0639469,-3.67674
515,47.0523,-0.0563473,-3.67839
517.4,47.2887,-0.0496972,-3.68233
519.8,47.5266,-0.0482051,-3.68413
522.2,47.7632,-0.0396741,-3.68628
524.6,48.0018,-0.0353765,-3.6876
527,48.2397,-0.0358367,-3.69089
529.4,48.4767,-0.0279876,-3.69088
531.8,48.7141,-0.011473,-3.6936
534.2,48.9521,0.00401319,-3.69485
536.6,49.1907,0.00650474,-3.69473
539,49.4284,0.0123192,-3.69605
541.4,49.6678,0.0237039,-3.69674
543.8,49.9055,0.0257385,-3.69803
546.2,50.1438,0.035505,-3.6978
548.6,50.3819,0.0383934,-3.69803
551,50.6199,0.0386008,-3.69927
553.4,50.8591,0.0528755,-3.70001
555.8,51.0973,0.0523531,-3.70001
558.2,51.3349,0.0418329,-3.69968
560.6,51.5739,0.0422348,-3.70034
563,51.8126,0.0527213,-3.70033
565.4,52.0509,0.0556407,-3.7013
567.8,52.2887,0.0490816,-3.70231
570.2,52.5282,0.0628373,-3.70215
572.6,52.7663,0.069236,-3.70197
575,53.0059,0.0710987,-3.70328
577.4,53.2454,0.0805326,-3.70265
579.8,53.4851,0.0909427,-3.70363
582.2,53.7235,0.0796401,-3.7036
584.6,53.9619,0.083583,-3.70231
587,54.2024,0.0862212,-3.70363
589.4,54.4411,0.0884757,-3.70363
591.8,54.6805,0.0898262,-3.70164
594.2,54.9208,0.0779362,-3.70541
596.6,55.1605,0.0816413,-3.70429
599,55.4002,0.0791336,-3.70804
601.4,55.6401,0.0807387,-3.70409
603.8,55.8806,0.0673968,-3.70407
606.2,56.1207,0.0653429,-3.70538
608.6,56.3601,0.0350966,-3.70604
611,56.6009,0.00517711,-3.70472
613.4,56.84,-0.0255624,-3.70571
615.8,57.081,-0.0361492,-3.7044
618.2,57.3197,-0.0357242,-3.7044
620.6,57.5585,-0.0353749,-3.70572
623,57.7985,-0.0384683,-3.70374
625.4,58.0378,-0.0307953,-3.7054
627.8,58.2772,-0.023428,-3.70572
630.2,58.5169,-0.0352602,-3.7067
632.6,58.7558,-0.0453836,-3.70406
635,58.9953,-0.0507316,-3.70637
637.4,59.2348,-0.0591894,-3.70637
639.8,59.4746,-0.0612831,-3.70703
642.2,59.7156,-0.0765263,-3.70836
644.6,59.9549,-0.0934924,-3.70942
647,60.1942,-0.104683,-3.70937
649.4,60.4354,-0.116009,-3.70855
651.8,60.6754,-0.123562,-3.70747
654.2,60.9151,-0.124256,-3.70747
656.6,61.1575,-0.129141,-3.70747
659,61.3982,-0.13469,-3.70944
661.4,61.6397,-0.136036,-3.70813
663.8,61.8796,-0.143489,-3.70932
666.2,62.12,-0.149642,-3.70813
668.6,62.3616,-0.146578,-3.70813
671,62.6013,-0.159662,-3.71009
673.4,62.8429,-0.165157,-3.71076
675.8,63.0844,-0.171271,-3.70945
678.2,63.3247,-0.186898,-3.70944
680.6,63.5666,-0.196568,-3.71141
683,63.8073,-0.20941,-3.70977
685.4,64.0494,-0.209929,-3.70977
687.8,64.2907,-0.20842,-3.70879
690.2,64.5324,-0.221613,-3.71017
692.6,64.7719,-0.222681,-3.70879
695,65.0148,-0.226172,-3.7109
697.4,65.2569,-0.172612,-3.70914
699.8,65.4968,-0.171884,-3.70912
702.2,65.7406,-0.17262,-3.71044
704.6,65.9822,-0.180797,-3.7108
707,66.2246,-0.189035,-3.71054
709.4,66.4667,-0.193306,-3.71187
711.8,66.708,-0.202294,-3.71184
714.2,66.9489,-0.217601,-3.71153
716.6,67.1908,-0.227419,-3.71315
719,67.4334,-0.229793,-3.71219
721.4,67.6751,-0.231963,-3.71222
723.8,67.9181,-0.231316,-3.71285
726.2,68.1617,-0.233743,-3.71153
728.6,68.4044,-0.231675,-3.71252
731,68.6477,-0.242753,-3.71121
733.4,68.8903,-0.250125,-3.71186
735.8,69.1325,-0.256518,-3.71219
738.2,69.376,-0.257244,-3.71153
740,69.5567,-0.252992,-3.71253