Folder: fsri_materials_database/01_Data/Helmet_Tetrahedron/STA/N2/10K_min (part 3)

File: Helmet_Tetrahedron_STA_N2_10KData_250527_R5.csv
Temp./C,Time/min,DSC/(mW/mg),Mass loss/mg
35.0,0.0,0.662368,-0.021124
37.4,0.321973,0.721256,-0.022202
39.8,0.631619,0.768429,-0.0220332
42.2,0.925193,0.807961,-0.0228571
44.6,1.21511,0.832911,-0.0232065
47,1.49827,0.874453,-0.0253406
49.4,1.77388,0.916814,-0.0234618
51.8,2.04428,0.953413,-0.025493
54.2,2.30984,0.980687,-0.0255879
56.6,2.56836,1.01186,-0.0256262
59,2.82546,1.02933,-0.0254606
61.4,3.07714,1.03385,-0.0267922
63.8,3.3286,1.03741,-0.0267899
66.2,3.57395,1.04773,-0.0268255
68.6,3.81948,1.0443,-0.0281594
71,4.06415,1.05692,-0.0267899
73.4,4.30716,1.06792,-0.0267867
75.8,4.54818,1.08327,-0.0280813
78.2,4.78842,1.09963,-0.0269277
80.6,5.02818,1.09799,-0.028103
83,5.26603,1.111,-0.02811
85.4,5.50475,1.12286,-0.0294262
87.8,5.74121,1.1277,-0.0294303
90.2,5.97681,1.14836,-0.0303132
92.6,6.21064,1.1578,-0.0307399
95,6.44471,1.17823,-0.0320702
97.4,6.67599,1.18584,-0.0307473
99.8,6.90975,1.20066,-0.0320846
102.2,7.14053,1.20811,-0.0319652
104.6,7.37004,1.22439,-0.0323895
107,7.60197,1.22725,-0.0329398
109.4,7.83154,1.24543,-0.0333833
111.8,8.05998,1.25423,-0.0346999
114.2,8.29208,1.26865,-0.0347741
116.6,8.52344,1.27665,-0.035996
119,8.75268,1.27894,-0.0367374
121.4,8.98201,1.29029,-0.0360197
123.8,9.21172,1.29825,-0.0360217
126.2,9.4401,1.29767,-0.03733
128.6,9.66863,1.30918,-0.037327
131,9.89731,1.30959,-0.0399387
133.4,10.1269,1.31464,-0.0399707
135.8,10.3537,1.32428,-0.0399701
138.2,10.581,1.33021,-0.04129
140.6,10.8085,1.34095,-0.0390131
143,11.0354,1.35039,-0.0423884
145.4,11.2625,1.35962,-0.0458788
147.8,11.4884,1.36422,-0.0458882
150.2,11.7151,1.37399,-0.0453384
152.6,11.9396,1.38728,-0.0452367
155,12.1665,1.3888,-0.0459497
157.4,12.3932,1.39993,-0.0466293
159.8,12.6189,1.41148,-0.0510055
162.2,12.8449,1.42298,-0.0468942
164.6,13.0689,1.43125,-0.0500885
167,13.2931,1.4277,-0.0535175
169.4,13.5209,1.43595,-0.0496305
171.8,13.7484,1.43029,-0.0525011
174.2,13.9738,1.43468,-0.0522698
176.6,14.1994,1.44277,-0.0485672
179,14.4253,1.43711,-0.0567606
181.4,14.6519,1.44194,-0.0588311
183.8,14.8782,1.43157,-0.0565216
186.2,15.1033,1.43459,-0.05907
188.6,15.3293,1.41867,-0.0603614
191,15.5558,1.4176,-0.0590715
193.4,15.7807,1.4226,-0.0620006
195.8,16.0069,1.42663,-0.0627
198.2,16.2316,1.41809,-0.0632719
200.6,16.4564,1.41998,-0.06434
203,16.6822,1.40776,-0.0651248
205.4,16.9069,1.40096,-0.0676533
207.8,17.1311,1.39573,-0.0692787
210.2,17.3591,1.39569,-0.0705945
212.6,17.5846,1.3915,-0.0719174
215,17.8103,1.38438,-0.0758707
217.4,18.0368,1.3722,-0.0785011
219.8,18.259,1.35894,-0.0797423
222.2,18.487,1.34597,-0.0837363
224.6,18.7134,1.33786,-0.0881607
227,18.9388,1.32408,-0.0934417
229.4,19.1656,1.32018,-0.0973736
231.8,19.391,1.30986,-0.101672
234.2,19.6166,1.31493,-0.109643
236.6,19.844,1.43718,-0.115957
239,20.0728,1.58677,-0.127204
241.4,20.3,1.63128,-0.139215
243.8,20.5262,1.6492,-0.150288
246.2,20.7528,1.65931,-0.16319
248.6,20.9791,1.67515,-0.179126
251,21.2062,1.68706,-0.192666
253.4,21.4339,1.71544,-0.210724
255.8,21.6605,1.7552,-0.229525
258.2,21.8883,1.79616,-0.24942
260.6,22.1157,1.84811,-0.270664
263,22.3418,1.89524,-0.296467
265.4,22.5705,1.9439,-0.325865
267.8,22.7998,2.02773,-0.357644
270.2,23.0286,2.10173,-0.394499
272.6,23.2564,2.20294,-0.434323
275,23.4849,2.31154,-0.480326
277.4,23.714,2.43661,-0.533772
279.8,23.9444,2.56821,-0.59318
282.2,24.1728,2.71486,-0.658146
284.6,24.4043,2.87927,-0.736467
287,24.6343,3.03948,-0.823018
289.4,24.8643,3.20031,-0.916444
291.8,25.0936,3.37464,-1.02269
294.2,25.3223,3.37903,-1.1384
296.6,25.5507,3.3728,-1.25916
299,25.7783,3.36599,-1.38167
301.4,26.0061,3.29414,-1.50878
303.8,26.2345,3.16962,-1.63649
306.2,26.4608,3.02153,-1.74934
308.6,26.6875,2.83713,-1.8547
311,26.9138,2.63465,-1.95047
313.4,27.141,2.42703,-2.03119
315.8,27.3672,2.25241,-2.1026
318.2,27.5941,2.06996,-2.16719
320.6,27.8209,1.90164,-2.22465
323,28.0487,1.75399,-2.27438
325.4,28.2761,1.60754,-2.32195
327.8,28.5035,1.4587,-2.35962
330.2,28.7305,1.33556,-2.39732
332.6,28.9584,1.20571,-2.42997
335,29.1861,1.07621,-2.45874
337.4,29.4159,0.955442,-2.48399
339.8,29.6446,0.853713,-2.5075
342.2,29.8736,0.74073,-2.5285
344.6,30.1032,0.653307,-2.54649
347,30.332,0.582787,-2.56021
349.4,30.5616,0.510759,-2.57363
351.8,30.791,0.457988,-2.58521
354.2,31.0202,0.417062,-2.59481
356.6,31.2514,0.378806,-2.6055
359,31.4831,0.363463,-2.61231
361.4,31.7148,0.337947,-2.61953
363.8,31.946,0.328852,-2.62695
366.2,32.1772,0.323375,-2.6318
368.6,32.4082,0.329225,-2.63705
371,32.6396,0.334079,-2.64402
373.4,32.8718,0.339003,-2.64918
375.8,33.1041,0.342735,-2.65589
378.2,33.3361,0.351038,-2.66248
380.6,33.568,0.3594,-2.66733
383,33.8005,0.360893,-2.67318
385.4,34.0339,0.363493,-2.68187
387.8,34.2662,0.368786,-2.68785
390.2,34.4983,0.377062,-2.69738
392.6,34.7313,0.373998,-2.70568
395,34.9638,0.373416,-2.71297
397.4,35.1963,0.365352,-2.72453
399.8,35.4301,0.364763,-2.73459
402.2,35.6632,0.356386,-2.74484
404.6,35.8947,0.359447,-2.75809
407,36.1293,0.346458,-2.77026
409.4,36.3619,0.338807,-2.78263
411.8,36.5943,0.331939,-2.79707
414.2,36.8291,0.327153,-2.81325
416.6,37.0637,0.310037,-2.83012
419,37.2987,0.309233,-2.84849
421.4,37.5323,0.288733,-2.8672
423.8,37.7673,0.287934,-2.8868
426.2,38.0017,0.292029,-2.90876
428.6,38.2349,0.296741,-2.93327
431,38.4701,0.300365,-2.95831
433.4,38.7047,0.31345,-2.98634
435.8,38.9392,0.322288,-3.01369
438.2,39.174,0.335026,-3.04208
440.6,39.4092,0.347383,-3.07517
443,39.6444,0.371341,-3.10811
445.4,39.8784,0.38933,-3.13986
447.8,40.1134,0.428867,-3.17031
450.2,40.349,0.448973,-3.20469
452.6,40.5839,0.475383,-3.23302
455,40.8197,0.490445,-3.26408
457.4,41.0545,0.492933,-3.29478
459.8,41.2903,0.508684,-3.3243
462.2,41.5255,0.513982,-3.35354
464.6,41.7608,0.503546,-3.38157
467,41.9965,0.479614,-3.4069
469.4,42.232,0.472134,-3.43275
471.8,42.4688,0.45198,-3.45496
474.2,42.7042,0.438108,-3.47772
476.6,42.9408,0.413545,-3.49831
479,43.1769,0.399332,-3.52004
481.4,43.4129,0.375947,-3.53695
483.8,43.6483,0.348285,-3.55463
486.2,43.8856,0.338849,-3.56972
488.6,44.1224,0.307864,-3.58386
491,44.3586,0.293248,-3.59549
493.4,44.5941,0.263035,-3.60865
495.8,44.8317,0.239937,-3.61874
498.2,45.0676,0.213196,-3.62743
500.6,45.3041,0.210112,-3.63439
503,45.5413,0.202641,-3.64068
505.4,45.7765,0.187068,-3.64743
507.8,46.0147,0.175823,-3.65248
510.2,46.2523,0.163681,-3.65682
512.6,46.4892,0.155266,-3.66135
515,46.7264,0.14835,-3.66335
517.4,46.9613,0.144352,-3.66632
519.8,47.2011,0.147368,-3.67027
522.2,47.4386,0.15289,-3.67225
524.6,47.6763,0.160192,-3.67356
527,47.9142,0.159077,-3.67421
529.4,48.1518,0.166244,-3.67553
531.8,48.3887,0.156034,-3.67817
534.2,48.6284,0.157985,-3.67913
536.6,48.8661,0.162355,-3.68
539,49.1046,0.156494,-3.68146
541.4,49.3435,0.159284,-3.68277
543.8,49.5821,0.157801,-3.68339
546.2,49.8179,0.15714,-3.68541
548.6,50.0599,0.156936,-3.68542
551,50.298,0.156663,-3.68673
553.4,50.537,0.151493,-3.6894
555.8,50.7773,0.15773,-3.68838
558.2,51.0148,0.148029,-3.6897
560.6,51.2555,0.141035,-3.68968
563,51.4947,0.136665,-3.69232
565.4,51.7336,0.131093,-3.69101
567.8,51.9743,0.105886,-3.69138
570.2,52.2127,0.0848396,-3.69134
572.6,52.453,0.0787958,-3.69266
575,52.6917,0.0690745,-3.69302
577.4,52.9309,0.0606313,-3.69302
579.8,53.171,0.0451684,-3.69298
582.2,53.4091,0.0362168,-3.69358
584.6,53.6479,0.0239687,-3.6943
587,53.8882,0.0259869,-3.69299
589.4,54.1264,0.0116342,-3.69431
591.8,54.3662,0.0045794,-3.69365
594.2,54.6049,0.00732619,-3.6943
596.6,54.8438,-0.0015246,-3.69562
599,55.0819,0.0018955,-3.69424
601.4,55.3223,-0.00271667,-3.69562
603.8,55.5612,0.00662384,-3.6943
606.2,55.8019,0.00388233,-3.69661
608.6,56.0423,0.00595926,-3.69661
611,56.2816,0.0091784,-3.69662
613.4,56.5228,0.002912,-3.69661
615.8,56.7636,0.00141488,-3.6966
618.2,57.0037,0.00406987,-3.69793
620.6,57.2446,0.00957248,-3.69694
623,57.4851,0.00751562,-3.69826
625.4,57.7265,0.0150133,-3.69695
627.8,57.9663,0.0193289,-3.69786
630.2,58.208,0.0238111,-3.69727
632.6,58.4484,0.0290069,-3.69826
635,58.6885,0.034589,-3.69748
637.4,58.9293,0.0295248,-3.69839
639.8,59.1707,0.0428734,-3.69957
642.2,59.411,0.0437321,-3.69957
644.6,59.6516,0.0464296,-3.69957
647,59.8925,0.0484992,-3.69858
649.4,60.133,0.0454077,-3.7009
651.8,60.3731,0.0625612,-3.7
654.2,60.6146,0.0643235,-3.69881
656.6,60.8542,0.0708631,-3.7001
659,61.0959,0.0703503,-3.70144
661.4,61.3367,0.0714743,-3.69946
663.8,61.5767,0.0744761,-3.7018
666.2,61.8182,0.0813677,-3.70045
668.6,62.06,0.0778566,-3.70177
671,62.3023,0.0902479,-3.70045
673.4,62.5442,0.0897622,-3.70177
675.8,62.7845,0.0856001,-3.70111
678.2,63.0275,0.092581,-3.70176
680.6,63.2696,0.0937643,-3.70177
683,63.5099,0.0949857,-3.70045
685.4,63.7522,0.0880308,-3.7017
687.8,63.9939,0.0984052,-3.70177
690.2,64.2345,0.100111,-3.70311
692.6,64.4768,0.0973614,-3.70243
695,64.7186,0.0796276,-3.70308
697.4,64.9605,0.0812937,-3.70242
699.8,65.1997,0.0833707,-3.7024
702.2,65.4451,0.0735408,-3.70308
704.6,65.6873,0.0696504,-3.70177
707,65.9296,0.0696703,-3.70243
709.4,66.1712,0.069602,-3.70228
711.8,66.4137,0.0688778,-3.70342
714.2,66.6557,0.0741093,-3.70309
716.6,66.8988,0.0778702,-3.70374
719,67.1407,0.0921324,-3.70374
721.4,67.3827,0.110006,-3.70407
723.8,67.6255,0.119761,-3.70374
726.2,67.8672,0.133068,-3.70493
728.6,68.1093,0.134003,-3.70506
731,68.3514,0.145529,-3.70549
733.4,68.5936,0.145823,-3.70476
735.8,68.8351,0.165068,-3.70605
738.2,69.0775,0.183866,-3.70474
740,69.2604,0.174574,-3.70407