Folder: fsri_materials_database/01_Data/Helmet_Tetrahedron/STA/N2/30K_min (part 2)

File: Helmet_Tetrahedron_STA_N2_30KData_250512_R3.csv
Temp./C,Time/min,DSC/(mW/mg),Mass loss/mg
35.0,0.0,1.08609,-0.0136036
37.4,0.168772,1.31682,-0.00621713
39.8,0.317008,1.50873,-0.0034825
42.2,0.450918,1.66824,-0.00171189
44.6,0.577886,1.8154,0.000331135
47,0.697242,1.94894,0.000547686
49.4,0.811739,2.07052,0.00364518
51.8,0.921864,2.19214,0.00322842
54.2,1.03053,2.30008,0.00396504
56.6,1.13545,2.41764,0.00632594
59,1.2382,2.52601,0.00517081
61.4,1.33904,2.61629,0.00696932
63.8,1.43701,2.67574,0.005248
66.2,1.5342,2.70602,0.00655387
68.6,1.62867,2.73098,0.00899807
71,1.72394,2.77206,0.00841236
73.4,1.8172,2.80792,0.00846752
75.8,1.90974,2.83546,0.00824774
78.2,2.001,2.87827,0.00965887
80.6,2.09179,2.92429,0.00972101
83,2.18123,2.97017,0.0100414
85.4,2.2702,3.03023,0.00848718
87.8,2.35791,3.08659,0.00854117
90.2,2.44429,3.14219,0.00849133
92.6,2.5303,3.20256,0.0110967
95,2.61496,3.25078,0.00979489
97.4,2.70035,3.2947,0.0112494
99.8,2.78456,3.34198,0.00996202
102.2,2.86767,3.38337,0.0112979
104.6,2.95006,3.42419,0.0113575
107,3.03294,3.4722,0.00998785
109.4,3.11513,3.51616,0.0099927
111.8,3.19701,3.56028,0.00873303
114.2,3.27858,3.6076,0.00998919
116.6,3.35946,3.645,0.00999993
119,3.44058,3.67853,0.00927167
121.4,3.52102,3.73035,0.00999
123.8,3.60061,3.77534,0.00869334
126.2,3.67991,3.81156,0.00868604
128.6,3.75853,3.84718,0.00998814
131,3.83704,3.89332,0.00999961
133.4,3.91509,3.9165,0.01
135.8,3.99267,3.95388,0.01
138.2,4.07003,3.98352,0.0100542
140.6,4.14717,4.01756,0.00903773
143,4.2238,4.05533,0.00867401
145.4,4.29947,4.08977,0.0100403
147.8,4.37559,4.10815,0.00867005
150.2,4.45091,4.15052,0.00872707
152.6,4.52638,4.17722,0.00637013
155,4.60228,4.2165,0.00766839
157.4,4.67733,4.23421,0.00636878
159.8,4.75209,4.26316,0.00636914
162.2,4.82713,4.2862,0.00500503
164.6,4.90185,4.32007,0.00342391
167,4.97646,4.36003,0.00341
169.4,5.0509,4.41863,0.00341447
171.8,5.12461,4.48887,0.00242112
174.2,5.1985,4.55378,0.00109607
176.6,5.27274,4.57501,0.0011
179,5.34652,4.58008,0.000809105
181.4,5.42004,4.582,-0.000184824
183.8,5.49281,4.60412,0.000449968
186.2,5.56584,4.62052,0.000429522
188.6,5.63843,4.6376,-0.000210036
191,5.71095,4.64479,-0.000209974
193.4,5.78353,4.66432,0.00078139
195.8,5.85538,4.68081,-0.000236274
198.2,5.92737,4.69886,-0.00022
200.6,5.99986,4.7131,-0.000220831
203,6.07174,4.72218,-0.0015382
205.4,6.14358,4.72165,-0.00256475
207.8,6.21507,4.72066,-0.0028597
210.2,6.28645,4.72757,-0.0041706
212.6,6.35836,4.73858,-0.00515676
215,6.42995,4.73071,-0.00548126
217.4,6.50146,4.74871,-0.00544441
219.8,6.57293,4.75713,-0.00559302
222.2,6.64428,4.76074,-0.00812354
224.6,6.71541,4.77115,-0.00943152
227,6.78674,4.7777,-0.0107605
229.4,6.85798,4.77684,-0.0119666
231.8,6.92911,4.77981,-0.0136818
234.2,7.00031,4.78744,-0.0165653
236.6,7.0712,4.77968,-0.0178718
239,7.14243,4.75308,-0.0192793
241.4,7.21311,4.71465,-0.0225343
243.8,7.28397,4.67778,-0.0259574
246.2,7.35482,4.63454,-0.0273419
248.6,7.42537,4.57704,-0.0312198
251,7.49622,4.52774,-0.0364686
253.4,7.56676,4.45287,-0.0426856
255.8,7.63718,4.3826,-0.0472026
258.2,7.7076,4.29937,-0.0501986
260.6,7.778,4.19781,-0.0553524
263,7.84771,4.06636,-0.0621251
265.4,7.9183,3.91181,-0.0701995
267.8,7.98993,4.17207,-0.0791172
270.2,8.06255,4.7786,-0.090315
272.6,8.13431,5.13353,-0.106347
275,8.20514,5.3498,-0.121588
277.4,8.27683,5.50699,-0.140487
279.8,8.34847,5.60859,-0.159008
282.2,8.41969,5.72553,-0.176206
284.6,8.49086,5.83133,-0.197901
287,8.56206,5.95642,-0.220233
289.4,8.63349,6.11122,-0.246817
291.8,8.70498,6.28731,-0.275915
294.2,8.77665,6.48566,-0.306645
296.6,8.8485,6.71764,-0.342247
299,8.9206,7.00074,-0.384306
301.4,8.9925,7.30927,-0.431306
303.8,9.06456,7.67043,-0.48575
306.2,9.13695,8.05829,-0.543127
308.6,9.20962,8.47296,-0.615857
311,9.28191,8.89247,-0.695692
313.4,9.35455,9.28076,-0.787922
315.8,9.42669,9.60868,-0.892591
318.2,9.49854,9.81858,-1.00085
320.6,9.56965,9.87722,-1.11722
323,9.64085,9.827,-1.24494
325.4,9.71143,9.6553,-1.3769
327.8,9.78161,9.37055,-1.50461
330.2,9.85198,9.00339,-1.62898
332.6,9.92149,8.58192,-1.7516
335,9.99261,8.2185,-1.87175
337.4,10.0632,7.93477,-1.98039
339.8,10.1334,7.45177,-2.07698
342.2,10.2025,6.87777,-2.16391
344.6,10.2732,6.25469,-2.24687
347,10.3429,5.64581,-2.31535
349.4,10.4125,5.04695,-2.37369
351.8,10.4824,4.47372,-2.42546
354.2,10.5524,3.93162,-2.47382
356.6,10.6224,3.44585,-2.51052
359,10.6929,2.99864,-2.54497
361.4,10.7632,2.61056,-2.57452
363.8,10.8341,2.27913,-2.59829
366.2,10.9051,1.99981,-2.62
368.6,10.9764,1.765,-2.63945
371,11.0479,1.5695,-2.65464
373.4,11.1196,1.41399,-2.66972
375.8,11.1916,1.30082,-2.6801
378.2,11.2631,1.21682,-2.69011
380.6,11.3361,1.1449,-2.70033
383,11.4081,1.10086,-2.70822
385.4,11.4809,1.10117,-2.71371
387.8,11.5536,1.09435,-2.7216
390.2,11.6261,1.10027,-2.72597
392.6,11.6989,1.10528,-2.73169
395,11.772,1.12422,-2.73826
397.4,11.845,1.13776,-2.74398
399.8,11.9179,1.15961,-2.75124
402.2,11.991,1.1694,-2.7586
404.6,12.0644,1.18854,-2.76664
407,12.1374,1.1967,-2.7726
409.4,12.2105,1.21992,-2.781
411.8,12.284,1.2187,-2.79017
414.2,12.3567,1.21147,-2.79875
416.6,12.4307,1.21666,-2.80922
419,12.504,1.21145,-2.81911
421.4,12.5771,1.20865,-2.83086
423.8,12.6512,1.19613,-2.84316
426.2,12.7252,1.18291,-2.85614
428.6,12.7987,1.16502,-2.86833
431,12.8723,1.15311,-2.88404
433.4,12.9459,1.14326,-2.90008
435.8,13.0205,1.12283,-2.9178
438.2,13.0935,1.10545,-2.93596
440.6,13.1682,1.09974,-2.95444
443,13.2418,1.08887,-2.97518
445.4,13.3167,1.07593,-2.99521
447.8,13.3909,1.07558,-3.01862
450.2,13.4655,1.07935,-3.04118
452.6,13.5401,1.11035,-3.06694
455,13.6147,1.13346,-3.09088
457.4,13.6898,1.17628,-3.11709
459.8,13.7644,1.23295,-3.14414
462.2,13.8394,1.28707,-3.16902
464.6,13.9143,1.32543,-3.19474
467,13.9894,1.36484,-3.2244
469.4,14.0645,1.39066,-3.25034
471.8,14.1393,1.40141,-3.27687
474.2,14.2148,1.38797,-3.30278
476.6,14.2895,1.38348,-3.3292
479,14.3648,1.3563,-3.35413
481.4,14.4401,1.33585,-3.37988
483.8,14.5155,1.30161,-3.4035
486.2,14.5906,1.28896,-3.42697
488.6,14.666,1.26197,-3.45085
491,14.7416,1.21235,-3.47263
493.4,14.8169,1.16711,-3.49401
495.8,14.8928,1.14112,-3.5162
498.2,14.9673,1.10166,-3.53452
500.6,15.0433,1.04208,-3.55097
503,15.1192,1.00904,-3.57004
505.4,15.1945,0.969971,-3.58714
507.8,15.2706,0.916906,-3.60199
510.2,15.3462,0.871512,-3.61574
512.6,15.4218,0.822336,-3.62879
515,15.4974,0.769321,-3.64014
517.4,15.5738,0.723597,-3.65051
519.8,15.6495,0.703591,-3.65873
522.2,15.7256,0.679506,-3.66809
524.6,15.8016,0.639173,-3.67552
527,15.878,0.638145,-3.6812
529.4,15.954,0.601846,-3.68666
531.8,16.0306,0.583851,-3.69202
534.2,16.107,0.56746,-3.69583
536.6,16.1832,0.547813,-3.69878
539,16.2597,0.542869,-3.70133
541.4,16.336,0.533639,-3.7043
543.8,16.412,0.545296,-3.70696
546.2,16.4894,0.534366,-3.70988
548.6,16.5661,0.544452,-3.71272
551,16.6426,0.55287,-3.71405
553.4,16.7195,0.535539,-3.71548
555.8,16.7963,0.542178,-3.71538
558.2,16.8734,0.550063,-3.71731
560.6,16.9501,0.564213,-3.7199
563,17.0269,0.567481,-3.71964
565.4,17.1041,0.572705,-3.71899
567.8,17.1811,0.574063,-3.72031
570.2,17.2577,0.577736,-3.72163
572.6,17.335,0.578952,-3.72127
575,17.4124,0.581955,-3.72263
577.4,17.4894,0.585053,-3.72403
579.8,17.5658,0.582425,-3.72401
582.2,17.6434,0.574938,-3.72295
584.6,17.7212,0.580738,-3.72294
587,17.7985,0.576106,-3.72474
589.4,17.876,0.577511,-3.7255
591.8,17.9533,0.57141,-3.72427
594.2,18.0304,0.579487,-3.72555
596.6,18.1079,0.568715,-3.72556
599,18.1854,0.571895,-3.72558
601.4,18.2628,0.577645,-3.72563
603.8,18.3404,0.572949,-3.72822
606.2,18.4181,0.574878,-3.72822
608.6,18.4956,0.568376,-3.72724
611,18.5734,0.567193,-3.72723
613.4,18.651,0.568215,-3.72856
615.8,18.729,0.568186,-3.72855
618.2,18.8066,0.569873,-3.72986
620.6,18.8845,0.575062,-3.73098
623,18.9623,0.563415,-3.73085
625.4,19.0409,0.566387,-3.73146
627.8,19.1188,0.566753,-3.7312
630.2,19.1969,0.575881,-3.72986
632.6,19.2748,0.572065,-3.72986
635,19.3526,0.574629,-3.73113
637.4,19.4311,0.588286,-3.72942
639.8,19.5087,0.585139,-3.72822
642.2,19.587,0.585441,-3.72822
644.6,19.665,0.576505,-3.72954
647,19.7431,0.571224,-3.73085
649.4,19.8214,0.572335,-3.73217
651.8,19.8996,0.573105,-3.73217
654.2,19.9775,0.57448,-3.73349
656.6,20.0557,0.577464,-3.73217
659,20.1336,0.524584,-3.73217
661.4,20.2122,0.538047,-3.73217
663.8,20.2909,0.550708,-3.73221
666.2,20.3683,0.548597,-3.73349
668.6,20.4474,0.539355,-3.73349
671,20.5254,0.530179,-3.73227
673.4,20.6037,0.525356,-3.73112
675.8,20.6822,0.53282,-3.73092
678.2,20.7606,0.516028,-3.73217
680.6,20.8389,0.502393,-3.73348
683,20.9173,0.495187,-3.73217
685.4,20.9952,0.494416,-3.73283
687.8,21.0744,0.483262,-3.73282
690.2,21.1531,0.477308,-3.73282
692.6,21.2317,0.472926,-3.7318
695,21.3105,0.464679,-3.73283
697.4,21.3892,0.455184,-3.73283
699.8,21.4681,0.438055,-3.73271
702.2,21.5472,0.427158,-3.73316
704.6,21.6261,0.410974,-3.73382
707,21.7048,0.400126,-3.73447
709.4,21.7836,0.392491,-3.73448
711.8,21.8631,0.378015,-3.7341
714.2,21.9419,0.374537,-3.73499
716.6,22.0211,0.362933,-3.73447
719,22.1003,0.350432,-3.73579
721.4,22.1794,0.333177,-3.73563
723.8,22.2585,0.319412,-3.7348
726.2,22.3377,0.310334,-3.73455
728.6,22.4169,0.300378,-3.7348
731,22.496,0.28273,-3.73612
733.4,22.5752,0.265749,-3.73573
735.8,22.6548,0.258418,-3.73481
738.2,22.7342,0.238637,-3.73481
740,22.7937,0.23313,-3.73481

File: Helmet_Tetrahedron_STA_N2_30KData_250513_R4.csv
Temp./C,Time/min,DSC/(mW/mg),Mass loss/mg
35.0,0.0,1.20172,-0.00218143
37.4,0.148306,1.42102,-0.00370983
39.8,0.283839,1.5993,-0.00329442
42.2,0.409309,1.74592,-0.00301527
44.6,0.528072,1.88498,-0.00303395
47,0.641892,2.01474,-0.00304687
49.4,0.75277,2.1273,-0.0029914
51.8,0.859475,2.2338,-0.00163994
54.2,0.963003,2.33272,-0.00132713
56.6,1.06522,2.44365,-0.00239749
59,1.16349,2.54115,-0.00161276
61.4,1.26279,2.64342,-0.00264728
63.8,1.35942,2.70138,-0.0046023
66.2,1.4539,2.7335,-0.00596405
68.6,1.54768,2.74655,-0.00380755
71,1.6405,2.76361,-0.00452835
73.4,1.73215,2.79747,-0.00318422
75.8,1.82333,2.82342,-0.00493826
78.2,1.91256,2.84723,-0.00344849
80.6,2.00272,2.89905,-0.003683
83,2.09162,2.93167,-0.00328354
85.4,2.17918,2.9744,-0.00327162
87.8,2.26607,3.02188,-0.00326165
90.2,2.35219,3.06495,-0.00454879
92.6,2.43755,3.11259,-0.00340468
95,2.52197,3.15253,-0.00567269
97.4,2.60589,3.19894,-0.00463066
99.8,2.68917,3.22605,-0.00489196
102.2,2.77228,3.26959,-0.00473989
104.6,2.85476,3.31637,-0.00473176
107,2.93717,3.35076,-0.00504744
109.4,3.01825,3.39661,-0.00559821
111.8,3.10035,3.44416,-0.00603286
114.2,3.18169,3.4775,-0.00603705
116.6,3.26215,3.51771,-0.00734911
119,3.34257,3.55332,-0.00701536
121.4,3.42284,3.59682,-0.00703147
123.8,3.5025,3.63086,-0.00571469
126.2,3.58194,3.66862,-0.0073873
128.6,3.66052,3.69792,-0.00604
131,3.73901,3.7285,-0.00727407
133.4,3.81683,3.76017,-0.00736045
135.8,3.89431,3.79157,-0.00733841
138.2,3.97116,3.81914,-0.00736
140.6,4.04834,3.84715,-0.00736
143,4.12471,3.88078,-0.00729056
145.4,4.20102,3.91152,-0.00999149
147.8,4.27671,3.93091,-0.0114053
150.2,4.35258,3.95452,-0.01131
152.6,4.42735,3.98505,-0.011298
155,4.50305,4.01163,-0.0099901
157.4,4.57798,4.03014,-0.00999
159.8,4.65311,4.05064,-0.0099907
162.2,4.72756,4.07999,-0.0113088
164.6,4.80204,4.11568,-0.01131
167,4.87632,4.15897,-0.01131
169.4,4.95093,4.20911,-0.0116058
171.8,5.02477,4.31253,-0.01263
174.2,5.09878,4.3251,-0.0126315
176.6,5.17271,4.34865,-0.0140216
179,5.24604,4.36293,-0.0152595
181.4,5.3192,4.35637,-0.0165818
183.8,5.39236,4.36174,-0.0165838
186.2,5.46414,4.37813,-0.0179116
188.6,5.53766,4.37916,-0.0185619
191,5.61002,4.38793,-0.0198799
193.4,5.68227,4.39376,-0.0185532
195.8,5.75433,4.40958,-0.0194914
198.2,5.82632,4.4104,-0.0201658
200.6,5.89789,4.41558,-0.0211901
203,5.97012,4.41528,-0.0202262
205.4,6.04218,4.40894,-0.0215199
207.8,6.11383,4.41183,-0.0215197
210.2,6.18526,4.41179,-0.022837
212.6,6.25705,4.42397,-0.0227376
215,6.32856,4.4265,-0.025459
217.4,6.39993,4.42767,-0.026793
219.8,6.47113,4.42508,-0.0267895
222.2,6.54248,4.42348,-0.0267755
224.6,6.6136,4.41895,-0.0293756
227,6.68523,4.42002,-0.0295317
229.4,6.75637,4.42792,-0.0308986
231.8,6.8275,4.42607,-0.031718
234.2,6.89858,4.42121,-0.0335708
236.6,6.96968,4.40292,-0.0350529
239,7.04066,4.38926,-0.0378838
241.4,7.11144,4.35618,-0.0388691
243.8,7.18204,4.31595,-0.0391988
246.2,7.25299,4.26835,-0.0420105
248.6,7.32348,4.22985,-0.0440979
251,7.39438,4.15775,-0.0474338
253.4,7.46494,4.1061,-0.0510231
255.8,7.53534,4.01335,-0.0556943
258.2,7.60579,3.92744,-0.0606863
260.6,7.67632,3.82328,-0.0645717
263,7.74658,3.68894,-0.0697839
265.4,7.81665,3.52965,-0.0750864
267.8,7.88814,3.74106,-0.0818164
270.2,7.9609,4.33131,-0.0912364
272.6,8.03268,4.70003,-0.104031
275,8.10442,4.93562,-0.118615
277.4,8.17554,5.08656,-0.134849
279.8,8.24675,5.20942,-0.150823
282.2,8.31835,5.31544,-0.168473
284.6,8.38937,5.42475,-0.18735
287,8.46098,5.54828,-0.205535
289.4,8.53226,5.69828,-0.227609
291.8,8.60391,5.86578,-0.251994
294.2,8.67563,6.05015,-0.278858
296.6,8.7475,6.26525,-0.31022
299,8.81925,6.50447,-0.346031
301.4,8.89165,6.77946,-0.386799
303.8,8.96386,7.10327,-0.434208
306.2,9.03596,7.43966,-0.488275
308.6,9.10845,7.78757,-0.550976
311,9.18078,8.16301,-0.62437
313.4,9.25333,8.53355,-0.708946
315.8,9.32567,8.88083,-0.801963
318.2,9.39762,9.19705,-0.903271
320.6,9.4696,9.43416,-1.01715
323,9.54139,9.59825,-1.14131
325.4,9.61272,9.63021,-1.27633
327.8,9.68376,9.51271,-1.40885
330.2,9.75454,9.30238,-1.54527
332.6,9.82532,9.10673,-1.68298
335,9.89563,8.67334,-1.81741
337.4,9.96446,7.92085,-1.93287
339.8,10.0342,7.22147,-2.03911
342.2,10.1036,6.61071,-2.13406
344.6,10.1737,5.98979,-2.22145
347,10.2435,5.38704,-2.29347
349.4,10.3131,4.80457,-2.35599
351.8,10.3829,4.22908,-2.41198
354.2,10.4529,3.68997,-2.46204
356.6,10.5229,3.18749,-2.50364
359,10.5934,2.72439,-2.53751
361.4,10.6636,2.3348,-2.56851
363.8,10.7343,1.98384,-2.59579
366.2,10.8054,1.67841,-2.61833
368.6,10.8767,1.42243,-2.63728
371,10.9482,1.22111,-2.65433
373.4,11.0197,1.05863,-2.66656
375.8,11.0914,0.923419,-2.67921
378.2,11.1635,0.842716,-2.68996
380.6,11.236,0.777961,-2.69971
383,11.3083,0.736337,-2.70719
385.4,11.3806,0.708185,-2.715
387.8,11.4534,0.704591,-2.72212
390.2,11.5262,0.716374,-2.72777
392.6,11.5986,0.717961,-2.73385
395,11.6718,0.730864,-2.7416
397.4,11.7446,0.750933,-2.74767
399.8,11.8176,0.753814,-2.75312
402.2,11.8909,0.769776,-2.75939
404.6,11.9644,0.789698,-2.76638
407,12.0376,0.797288,-2.77379
409.4,12.1105,0.820105,-2.78064
411.8,12.1838,0.831961,-2.7896
414.2,12.2573,0.827614,-2.79832
416.6,12.3307,0.835306,-2.808
419,12.4043,0.835978,-2.81919
421.4,12.4778,0.827856,-2.83069
423.8,12.5515,0.821696,-2.84044
426.2,12.6253,0.805866,-2.85271
428.6,12.699,0.797743,-2.86851
431,12.7727,0.787483,-2.88163
433.4,12.8469,0.769724,-2.89613
435.8,12.9207,0.760368,-2.9134
438.2,12.9948,0.758553,-2.931
440.6,13.0689,0.761292,-2.94795
443,13.1433,0.753697,-2.96776
445.4,13.2175,0.770434,-2.98692
447.8,13.2922,0.785154,-3.0102
450.2,13.3666,0.80742,-3.03356
452.6,13.4405,0.838749,-3.05825
455,13.5158,0.902058,-3.08226
457.4,13.591,0.952025,-3.1079
459.8,13.6658,1.0107,-3.13309
462.2,13.7408,1.06985,-3.15842
464.6,13.8157,1.14053,-3.18477
467,13.8909,1.18858,-3.21225
469.4,13.9661,1.23187,-3.23847
471.8,14.0412,1.23573,-3.26592
474.2,14.1163,1.22441,-3.29318
476.6,14.1916,1.22886,-3.31987
479,14.2666,1.21331,-3.34496
481.4,14.3419,1.17655,-3.36806
483.8,14.4174,1.16734,-3.39319
486.2,14.4928,1.12451,-3.4156
488.6,14.5682,1.08513,-3.43966
491,14.6436,1.0476,-3.46215
493.4,14.7189,0.980008,-3.48454
495.8,14.7945,0.917555,-3.5057
498.2,14.8701,0.859192,-3.52483
500.6,14.9454,0.795274,-3.54628
503,15.0212,0.731617,-3.56196
505.4,15.097,0.639969,-3.57699
507.8,15.1725,0.58682,-3.5921
510.2,15.2482,0.517385,-3.60444
512.6,15.3241,0.449088,-3.61974
515,15.3998,0.369134,-3.63001
517.4,15.4759,0.314487,-3.63978
519.8,15.5519,0.262144,-3.65128
522.2,15.628,0.209721,-3.65898
524.6,15.7039,0.160515,-3.66681
527,15.7801,0.109696,-3.67542
529.4,15.8565,0.0684891,-3.68104
531.8,15.9326,0.0366326,-3.68531
534.2,16.009,0.0194974,-3.68772
536.6,16.0854,-0.00307776,-3.69278
539,16.1619,-0.00745683,-3.69791
541.4,16.2385,-0.0165299,-3.70139
543.8,16.3148,-0.032195,-3.70348
546.2,16.3916,-0.0349083,-3.70615
548.6,16.4682,-0.0299821,-3.70747
551,16.545,-0.0329293,-3.70879
553.4,16.6216,-0.0295613,-3.70978
555.8,16.6986,-0.0242317,-3.70981
558.2,16.7755,-0.0209308,-3.71059
560.6,16.8521,-0.015656,-3.7122
563,16.9286,-0.00354793,-3.71505
565.4,17.0063,0.0113802,-3.71505
567.8,17.0835,0.0169344,-3.71505
570.2,17.1607,0.0262683,-3.7157
572.6,17.2378,0.0268024,-3.71766
575,17.3148,0.0252981,-3.71829
577.4,17.3924,0.0309378,-3.719
579.8,17.4695,0.0284245,-3.72034
582.2,17.5468,0.0282632,-3.72144
584.6,17.624,0.0261999,-3.72166
587,17.7018,0.0256303,-3.72295
589.4,17.7792,0.031356,-3.72295
591.8,17.8568,0.0271674,-3.72163
594.2,17.9342,0.0147334,-3.72163
596.6,18.0116,0.0253568,-3.72299
599,18.0893,0.0117079,-3.72569
601.4,18.1675,0.00177704,-3.72554
603.8,18.2449,-0.00097326,-3.72521
606.2,18.3227,-0.00204024,-3.72504
608.6,18.3995,-0.00881854,-3.72504
611,18.4785,-0.00377894,-3.72373
613.4,18.556,-0.00841062,-3.72373
615.8,18.6338,-0.00747355,-3.72363
618.2,18.7117,-0.0145974,-3.72405
620.6,18.7899,-0.0231296,-3.72405
623,18.8681,-0.0148701,-3.72405
625.4,18.9461,-0.0120571,-3.72403
627.8,19.0238,-0.00885928,-3.72558
630.2,19.1021,-0.0079422,-3.72691
632.6,19.1804,-0.00883933,-3.7269
635,19.2584,-0.0205104,-3.72757
637.4,19.3368,-0.0156871,-3.72757
639.8,19.4151,-0.013485,-3.72757
642.2,19.4932,-0.0267421,-3.72484
644.6,19.5708,-0.0299901,-3.72493
647,19.6497,-0.0315892,-3.72494
649.4,19.728,-0.0358975,-3.72625
651.8,19.8067,-0.0373211,-3.72491
654.2,19.8853,-0.0388577,-3.72745
656.6,19.9634,-0.0410474,-3.72855
659,20.0421,-0.0356497,-3.72987
661.4,20.1203,-0.0274785,-3.7292
663.8,20.1991,-0.055514,-3.72921
666.2,20.2772,-0.0316564,-3.72884
668.6,20.3561,-0.0311704,-3.72789
671,20.4343,-0.0366053,-3.72921
673.4,20.5131,-0.0478767,-3.73019
675.8,20.5919,-0.0509557,-3.72889
678.2,20.6702,-0.0510861,-3.72757
680.6,20.7489,-0.0548456,-3.72889
683,20.8279,-0.0620815,-3.72627
685.4,20.9066,-0.0581655,-3.72788
687.8,20.9852,-0.0521752,-3.72888
690.2,21.0639,-0.0571484,-3.7302
692.6,21.143,-0.0568307,-3.72888
695,21.2216,-0.0546407,-3.72888
697.4,21.3002,-0.060971,-3.7302
699.8,21.3793,-0.0625829,-3.7302
702.2,21.4582,-0.0672107,-3.7302
704.6,21.5369,-0.069119,-3.7302
707,21.6159,-0.0786502,-3.7301
709.4,21.6949,-0.0802413,-3.73023
711.8,21.7737,-0.0797923,-3.73151
714.2,21.853,-0.0826548,-3.73141
716.6,21.9312,-0.0915265,-3.7302
719,22.0108,-0.100134,-3.7302
721.4,22.09,-0.0991713,-3.7312
723.8,22.1694,-0.0974006,-3.73053
726.2,22.2486,-0.0921361,-3.73053
728.6,22.328,-0.1001,-3.7311
731,22.407,-0.102873,-3.73079
733.4,22.4866,-0.109691,-3.72988
735.8,22.5657,-0.108956,-3.73155
738.2,22.6455,-0.113754,-3.73324
740,22.7049,-0.108953,-3.73415