Folder: fsri_materials_database/01_Data/Helmet_Tetrahedron/STA/N2/30K_min

File: Helmet_Tetrahedron_STA_N2_30KData_240229_R1.csv
Temp./C,Time/min,DSC/(mW/mg),Mass loss/mg
60.0,0.0,1.70369,0.00060935
62.3,0.114513,1.93374,-0.00024019
64.6,0.220237,2.14893,0.00180589
66.9,0.319572,2.32728,0.00271448
69.2,0.414725,2.46843,0.00592258
71.5,0.505778,2.59507,0.00722519
73.8,0.595243,2.70048,0.00587088
76.1,0.681671,2.78773,0.00182703
78.4,0.766179,2.88322,0.00127029
80.7,0.85051,2.96586,0.00256831
83,0.932931,3.03447,0.00190959
85.3,1.01378,3.10793,0.00100034
87.6,1.09438,3.164,0.00128328
89.9,1.17325,3.23097,-0.00172225
92.2,1.25277,3.28374,-0.00174127
94.5,1.33139,3.34653,-0.00135393
96.8,1.4086,3.38722,0.000310704
99.1,1.48607,3.43569,0.00152728
101.4,1.56299,3.48574,0.000969678
103.7,1.63938,3.53431,0.0023638
106,1.7162,3.56652,0.00163998
108.3,1.79276,3.60817,0.000662269
110.6,1.86888,3.65187,0.00146503
112.9,1.94447,3.69068,0.00328339
115.2,2.02082,3.74006,0.0035452
117.5,2.09692,3.76441,0.00231142
119.8,2.17284,3.80317,0.00314481
122.1,2.2484,3.84384,0.00173923
124.4,2.32355,3.8737,0.000430386
126.7,2.39867,3.90621,0.000429999
129,2.4739,3.93844,0.000454547
131.3,2.54823,3.9637,0.00141991
133.6,2.62283,3.9939,0.00106169
135.9,2.6962,4.02191,-0.00128847
138.2,2.77066,4.05993,0.000139917
140.5,2.84386,4.08495,0.000235389
142.8,2.91832,4.11688,0.00010868
145.1,2.99156,4.14103,0.00142035
147.4,3.06463,4.16659,0.00142
149.7,3.13739,4.19681,0.00142
152,3.21056,4.22324,0.00137663
154.3,3.28324,4.24522,-0.000736356
156.6,3.35577,4.27378,9.97848e-05
158.9,3.42795,4.28909,-0.00254046
161.2,3.50049,4.30586,-0.00392781
163.5,3.57248,4.33503,-0.00538607
165.8,3.64433,4.35431,-0.00396001
168.1,3.71715,4.37137,-0.00527975
170.4,3.78877,4.39471,-0.00249292
172.7,3.86051,4.4154,0.000108621
175,3.93224,4.43309,0.000306741
177.3,4.00374,4.44681,-0.00111013
179.6,4.07495,4.47299,-0.00241686
181.9,4.14616,4.50254,-0.00241997
184.2,4.21712,4.51021,-0.00115406
186.5,4.28797,4.53449,-0.00106263
188.8,4.35823,4.55728,-0.00323274
191.1,4.42939,4.56681,-0.0051634
193.4,4.49983,4.58849,-0.00430519
195.7,4.5703,4.60307,-0.00420637
198,4.64009,4.61607,-0.00253152
200.3,4.70968,4.63105,-0.00253001
202.6,4.78054,4.64074,-0.00244648
204.9,4.85005,4.64423,-0.00677603
207.2,4.92042,4.65578,-0.00801987
209.5,4.99034,4.65627,-0.00804031
211.8,5.05958,4.66884,-0.0109193
214.1,5.12987,4.67926,-0.0109399
216.4,5.19942,4.67521,-0.0108807
218.7,5.26934,4.67909,-0.00952738
221,5.33937,4.68451,-0.0122547
223.3,5.40905,4.68548,-0.0147
225.6,5.47844,4.68493,-0.01483
227.9,5.54832,4.69075,-0.0145121
230.2,5.61785,4.68696,-0.0163013
232.5,5.68744,4.67845,-0.0175787
234.8,5.75689,4.68073,-0.0195776
237.1,5.82641,4.66297,-0.0211863
239.4,5.89548,4.64614,-0.0232983
241.7,5.96486,4.62449,-0.0245556
244,6.03436,4.59095,-0.0261555
246.3,6.10369,4.55597,-0.0290472
248.6,6.17305,4.50436,-0.0319175
250.9,6.24177,4.44479,-0.036021
253.2,6.31085,4.37224,-0.0402796
255.5,6.37993,4.2794,-0.0464353
257.8,6.44846,4.19631,-0.0508516
260.1,6.51872,4.23435,-0.0577252
262.4,6.58862,4.46472,-0.0641187
264.7,6.65842,4.7347,-0.0706973
267,6.72892,4.92324,-0.0778741
269.3,6.79849,5.06258,-0.086403
271.6,6.86786,5.16876,-0.097513
273.9,6.93799,5.26302,-0.110164
276.2,7.00782,5.3466,-0.123802
278.5,7.07767,5.43456,-0.13985
280.8,7.14743,5.5361,-0.153808
283.1,7.21737,5.64777,-0.17233
285.4,7.28718,5.76082,-0.19559
287.7,7.35732,5.89375,-0.220579
290,7.42731,6.04509,-0.245561
292.3,7.49786,6.21194,-0.275734
294.6,7.56832,6.39948,-0.30959
296.9,7.63879,6.6083,-0.345324
299.2,7.70924,6.83349,-0.385137
301.5,7.7795,7.0707,-0.430332
303.8,7.85009,7.33601,-0.48483
306.1,7.92126,7.60654,-0.543237
308.4,7.99176,7.87926,-0.606602
310.7,8.06232,8.15348,-0.675701
313,8.13317,8.42297,-0.753761
315.3,8.20413,8.67465,-0.835711
317.6,8.27502,8.92373,-0.919519
319.9,8.34531,9.13598,-1.00707
322.2,8.41631,9.29096,-1.10378
324.5,8.48675,9.34051,-1.20096
326.8,8.55672,9.28047,-1.29568
329.1,8.62599,9.06967,-1.3866
331.4,8.695,8.75985,-1.47499
333.7,8.76399,8.34735,-1.5574
336,8.83245,7.89031,-1.62865
338.3,8.90113,7.39529,-1.69415
340.6,8.96919,6.86737,-1.75609
342.9,9.03753,6.32823,-1.80722
345.2,9.10538,5.79408,-1.85502
347.5,9.17399,5.25997,-1.8944
349.8,9.24203,4.73366,-1.93199
352.1,9.31027,4.24433,-1.96414
354.4,9.37838,3.78359,-1.99229
356.7,9.44736,3.35946,-2.01373
359,9.5165,2.99188,-2.03558
361.3,9.5855,2.6809,-2.05428
363.6,9.65532,2.41919,-2.07389
365.9,9.72484,2.22231,-2.09104
368.2,9.795,2.06494,-2.10603
370.5,9.86488,1.95269,-2.11907
372.8,9.93518,1.87345,-2.13324
375.1,10.0057,1.8115,-2.14454
377.4,10.0763,1.76904,-2.15599
379.7,10.1463,1.73576,-2.16638
382,10.2177,1.71788,-2.17572
384.3,10.2886,1.71118,-2.18635
386.6,10.3594,1.70441,-2.19956
388.9,10.4301,1.70273,-2.21203
391.2,10.5015,1.71539,-2.22561
393.5,10.5733,1.72081,-2.24162
395.8,10.6441,1.73881,-2.25544
398.1,10.7153,1.76323,-2.26993
400.4,10.7876,1.77495,-2.28651
402.7,10.8586,1.80308,-2.2993
405,10.9305,1.81218,-2.31705
407.3,11.0025,1.82285,-2.33626
409.6,11.0741,1.82665,-2.35564
411.9,11.1459,1.82874,-2.3745
414.2,11.2168,1.80789,-2.3952
416.5,11.2889,1.76599,-2.41874
418.8,11.3609,1.72628,-2.44119
421.1,11.4326,1.66318,-2.46736
423.4,11.5041,1.58617,-2.49099
425.7,11.576,1.49783,-2.51464
428,11.6477,1.38997,-2.5409
430.3,11.7191,1.27779,-2.56416
432.6,11.7911,1.14087,-2.58791
434.9,11.8631,1.00532,-2.61228
437.2,11.9347,0.857615,-2.64001
439.5,12.0064,0.726055,-2.66439
441.8,12.0787,0.593687,-2.6869
444.1,12.1502,0.483104,-2.70792
446.4,12.2224,0.378563,-2.7295
448.7,12.2947,0.287357,-2.75196
451,12.367,0.209045,-2.77327
453.3,12.4397,0.133501,-2.79383
455.6,12.512,0.084885,-2.81541
457.9,12.5848,0.0498571,-2.83859
460.2,12.6572,0.0280944,-2.85946
462.5,12.7301,0.0180122,-2.88072
464.8,12.803,0.0318755,-2.90136
467.1,12.8761,0.0705473,-2.92172
469.4,12.9495,0.127642,-2.94343
471.7,13.0228,0.188373,-2.9662
474,13.0961,0.268372,-2.98895
476.3,13.1698,0.330538,-3.01246
478.6,13.2431,0.397533,-3.03236
480.9,13.3164,0.449319,-3.05565
483.2,13.3901,0.483723,-3.07914
485.5,13.4636,0.495431,-3.10175
487.8,13.5372,0.48684,-3.1237
490.1,13.6105,0.466707,-3.14094
492.4,13.6841,0.448664,-3.15962
494.7,13.7575,0.425429,-3.17712
497,13.8313,0.397627,-3.19218
499.3,13.9051,0.367429,-3.20848
501.6,13.9786,0.326657,-3.2258
503.9,14.0521,0.284654,-3.23987
506.2,14.1259,0.245283,-3.25145
508.5,14.1991,0.19378,-3.26257
510.8,14.2734,0.149405,-3.27273
513.1,14.3471,0.114934,-3.28521
515.4,14.4205,0.0720479,-3.29232
517.7,14.4948,0.0325901,-3.3007
520,14.5689,0.0117349,-3.30636
522.3,14.6427,-0.0203926,-3.30831
524.6,14.7166,-0.0444445,-3.31491
526.9,14.791,-0.0704477,-3.32063
529.2,14.8652,-0.085273,-3.3295
531.5,14.9391,-0.0939007,-3.33404
533.8,15.0133,-0.116174,-3.33554
536.1,15.0879,-0.116486,-3.33817
538.4,15.1622,-0.124335,-3.3412
540.7,15.2366,-0.132628,-3.34564
543,15.3109,-0.13965,-3.35094
545.3,15.3853,-0.143712,-3.35609
547.6,15.4597,-0.151426,-3.35709
549.9,15.5349,-0.15535,-3.3569
552.2,15.609,-0.154664,-3.35738
554.5,15.6838,-0.16037,-3.35738
556.8,15.7585,-0.163741,-3.36001
559.1,15.8331,-0.171722,-3.36004
561.4,15.9075,-0.180909,-3.35991
563.7,15.9826,-0.187886,-3.36123
566,16.0573,-0.184941,-3.36305
568.3,16.1315,-0.187408,-3.36565
570.6,16.2069,-0.200691,-3.36814
572.9,16.2817,-0.2026,-3.36787
575.2,16.3559,-0.206203,-3.367
577.5,16.4316,-0.212217,-3.36926
579.8,16.5065,-0.213703,-3.37089
582.1,16.5818,-0.21462,-3.37221
584.4,16.6566,-0.228426,-3.37352
586.7,16.732,-0.227407,-3.3748
589,16.8071,-0.228868,-3.37254
591.3,16.8825,-0.234949,-3.37386
593.6,16.9575,-0.242848,-3.37647
595.9,17.0331,-0.254388,-3.37794
598.2,17.1083,-0.276288,-3.38051
600.5,17.1838,-0.283785,-3.3791
602.8,17.2592,-0.29868,-3.37775
605.1,17.3344,-0.317472,-3.37764
607.4,17.4098,-0.323654,-3.37539
609.7,17.4856,-0.350868,-3.38013
612,17.5606,-0.369564,-3.38208
614.3,17.6368,-0.383281,-3.3834
616.6,17.7122,-0.397162,-3.38218
618.9,17.7877,-0.414379,-3.38253
621.2,17.8636,-0.435984,-3.38342
623.5,17.9393,-0.445934,-3.38077
625.8,18.0149,-0.458745,-3.38077
628.1,18.0905,-0.478885,-3.38214
630.4,18.1661,-0.494765,-3.38341
632.7,18.2422,-0.516672,-3.38296
635,18.3177,-0.534114,-3.38333
637.3,18.3932,-0.558515,-3.38472
639.6,18.4694,-0.571626,-3.38483
641.9,18.545,-0.584588,-3.38693
644.2,18.6207,-0.601196,-3.38779
646.5,18.6965,-0.625267,-3.38878
648.8,18.7726,-0.637786,-3.38751
651.1,18.8487,-0.650144,-3.38802
653.4,18.9249,-0.661904,-3.39023
655.7,19.0005,-0.676439,-3.39088
658,19.0765,-0.6928,-3.39021
660.3,19.1527,-0.706584,-3.38919
662.6,19.2289,-0.717987,-3.39021
664.9,19.3051,-0.734033,-3.39369
667.2,19.3809,-0.752047,-3.39458
669.5,19.457,-0.756166,-3.39691
671.8,19.5332,-0.77321,-3.39571
674.1,19.6094,-0.7817,-3.39549
676.4,19.6856,-0.801031,-3.39546
678.7,19.7619,-0.8187,-3.39681
681,19.8383,-0.827994,-3.3968
683.3,19.9144,-0.84267,-3.3968
685.6,19.991,-0.863045,-3.3968
687.9,20.0676,-0.899494,-3.39688
690.2,20.1439,-0.91889,-3.3968
692.5,20.2203,-0.937581,-3.39787
694.8,20.297,-0.966997,-3.39914
697.1,20.3736,-0.989734,-3.40088
699.4,20.4503,-1.01321,-3.40229
701.7,20.527,-1.03061,-3.40229
704,20.6038,-1.05522,-3.40106
706.3,20.6806,-1.0855,-3.40229
708.6,20.7572,-1.09696,-3.40135
710.9,20.8342,-1.12756,-3.40232
713.2,20.9108,-1.14343,-3.40511
715.5,20.988,-1.16881,-3.40645
717.8,21.065,-1.19282,-3.40494
720.1,21.1421,-1.20666,-3.40516
722.4,21.2192,-1.23389,-3.40362
724.7,21.2961,-1.24718,-3.40357
727,21.3732,-1.27387,-3.40496
729.3,21.4504,-1.29316,-3.40753
731.6,21.5279,-1.32569,-3.40879
733.9,21.6046,-1.34163,-3.41118
736.2,21.6821,-1.3674,-3.41118
738.5,21.7595,-1.38852,-3.41058
740,21.8101,-1.40119,-3.41118

File: Helmet_Tetrahedron_STA_N2_30KData_250509_R2.csv
Temp./C,Time/min,DSC/(mW/mg),Mass loss/mg
35.0,0.0,1.05339,-0.00798018
37.4,0.148207,1.26116,-0.00787867
39.8,0.283394,1.42979,-0.00693021
42.2,0.408925,1.56422,-0.00745079
44.6,0.528255,1.71435,-0.004775
47,0.641,1.83143,-0.00837394
49.4,0.75228,1.93732,-0.00754209
51.8,0.859292,2.03373,-0.00848877
54.2,0.963113,2.1395,-0.0075578
56.6,1.06473,2.23947,-0.00899508
59,1.16496,2.33277,-0.00936669
61.4,1.26295,2.40991,-0.0101827
63.8,1.3591,2.46246,-0.00849367
66.2,1.4535,2.49297,-0.010574
68.6,1.5472,2.51226,-0.0111174
71,1.63955,2.5246,-0.0103695
73.4,1.73141,2.53431,-0.0103956
75.8,1.82254,2.55115,-0.0105942
78.2,1.91288,2.59739,-0.0113586
80.6,2.00234,2.62558,-0.0116229
83,2.09119,2.65459,-0.0105601
85.4,2.17858,2.69871,-0.01138
87.8,2.26579,2.73107,-0.0111198
90.2,2.35212,2.79495,-0.0121317
92.6,2.43703,2.83863,-0.0120446
95,2.52186,2.88779,-0.0116103
97.4,2.60626,2.94129,-0.0105894
99.8,2.68962,2.9847,-0.0119705
102.2,2.77225,3.0256,-0.0132819
104.6,2.85413,3.0629,-0.0145833
107,2.93696,3.09951,-0.0132075
109.4,3.01862,3.13305,-0.0131712
111.8,3.09971,3.17596,-0.0131716
114.2,3.18125,3.20968,-0.0150256
116.6,3.26214,3.25259,-0.0158044
119,3.34244,3.28045,-0.0144896
121.4,3.42237,3.31048,-0.0144996
123.8,3.50192,3.34149,-0.0158099
126.2,3.58128,3.38159,-0.0171288
128.6,3.6599,3.40391,-0.0158105
131,3.73769,3.43571,-0.0157658
133.4,3.81575,3.46727,-0.0158064
135.8,3.89324,3.49754,-0.0170577
138.2,3.97046,3.53134,-0.0153627
140.6,4.04719,3.55276,-0.0166802
143,4.12395,3.58822,-0.0180068
145.4,4.20012,3.60597,-0.018
147.8,4.27586,3.62572,-0.0207365
150.2,4.35169,3.65239,-0.02064
152.6,4.42707,3.66703,-0.02064
155,4.50191,3.68362,-0.02064
157.4,4.57679,3.70972,-0.02064
159.8,4.65141,3.72931,-0.0206396
162.2,4.72622,3.7568,-0.0232803
164.6,4.80003,3.77538,-0.0229513
167,4.87462,3.80047,-0.0240874
169.4,4.94883,3.84572,-0.0227052
171.8,5.02278,3.90961,-0.0246769
174.2,5.09713,4.00568,-0.0259426
176.6,5.17101,4.04015,-0.0259473
179,5.24399,4.04479,-0.0269
181.4,5.31707,4.03975,-0.0269
183.8,5.38985,4.05681,-0.0268956
186.2,5.46303,4.06332,-0.0272258
188.6,5.5355,4.06518,-0.0272316
191,5.60798,4.07679,-0.028543
193.4,5.68033,4.08193,-0.0298552
195.8,5.7513,4.09191,-0.0309385
198.2,5.82423,4.11128,-0.0315482
200.6,5.89584,4.11329,-0.0315047
203,5.96789,4.1124,-0.03249
205.4,6.03953,4.09454,-0.0324883
207.8,6.1112,4.0917,-0.0331529
210.2,6.18272,4.10508,-0.0337449
212.6,6.25411,4.10569,-0.0344696
215,6.32574,4.11377,-0.0357976
217.4,6.39683,4.11722,-0.0370983
219.8,6.4685,4.1228,-0.0384218
222.2,6.53991,4.12164,-0.0397394
224.6,6.61069,4.13164,-0.0410815
227,6.68212,4.14233,-0.043862
229.4,6.75323,4.13149,-0.0446453
231.8,6.82439,4.14017,-0.045675
234.2,6.89501,4.13423,-0.0476793
236.6,6.96625,4.12497,-0.0493009
239,7.03676,4.11552,-0.0524661
241.4,7.10799,4.08046,-0.0541252
243.8,7.17833,4.03786,-0.0569427
246.2,7.2492,4.00153,-0.0602384
248.6,7.31989,3.9557,-0.0622389
251,7.39041,3.90086,-0.067082
253.4,7.46099,3.82867,-0.072379
255.8,7.53115,3.755,-0.0758847
258.2,7.60182,3.66973,-0.0815453
260.6,7.67192,3.56588,-0.0869276
263,7.74231,3.4434,-0.0934334
265.4,7.81176,3.29478,-0.100545
267.8,7.88324,3.4499,-0.109037
270.2,7.95575,4.05981,-0.119334
272.6,8.02767,4.44742,-0.133539
275,8.09949,4.67811,-0.150836
277.4,8.17066,4.85057,-0.168303
279.8,8.24139,4.94416,-0.183441
282.2,8.3127,5.06978,-0.202964
284.6,8.38396,5.1674,-0.224721
287,8.45497,5.30695,-0.245592
289.4,8.52651,5.46037,-0.268753
291.8,8.59776,5.62682,-0.297372
294.2,8.66933,5.81812,-0.327087
296.6,8.74114,6.04671,-0.363817
299,8.81293,6.32242,-0.404833
301.4,8.88523,6.62806,-0.448925
303.8,8.95726,6.9807,-0.500163
306.2,9.02981,7.36893,-0.561452
308.6,9.10166,7.78284,-0.630725
311,9.17451,8.20943,-0.711146
313.4,9.24709,8.61862,-0.798087
315.8,9.31916,8.95798,-0.898369
318.2,9.39073,9.20254,-1.00651
320.6,9.4624,9.3368,-1.12721
323,9.53341,9.34698,-1.2511
325.4,9.60466,9.2277,-1.3793
327.8,9.67521,9.00309,-1.50933
330.2,9.74552,8.67687,-1.64008
332.6,9.81561,8.26059,-1.76352
335,9.88569,7.84216,-1.87874
337.4,9.95606,7.43916,-1.98777
339.8,10.0265,7.04025,-2.0909
342.2,10.0963,6.57301,-2.18184
344.6,10.166,5.96179,-2.25954
347,10.2357,5.3141,-2.32909
349.4,10.305,4.68372,-2.39062
351.8,10.3746,4.07842,-2.4436
354.2,10.4443,3.52074,-2.48932
356.6,10.5143,3.00958,-2.52811
359,10.5847,2.54885,-2.56213
361.4,10.6552,2.1502,-2.59353
363.8,10.7255,1.79212,-2.61337
366.2,10.797,1.49041,-2.64008
368.6,10.8676,1.2426,-2.65765
371,10.9394,1.04353,-2.67323
373.4,11.011,0.893824,-2.68705
375.8,11.0829,0.767743,-2.69914
378.2,11.1546,0.681115,-2.70944
380.6,11.2272,0.616577,-2.71763
383,11.2995,0.583535,-2.72486
385.4,11.3717,0.560175,-2.73133
387.8,11.4443,0.55738,-2.73751
390.2,11.5172,0.573485,-2.74645
392.6,11.5901,0.589659,-2.75093
395,11.6622,0.602387,-2.75889
397.4,11.7357,0.623475,-2.76313
399.8,11.8092,0.646602,-2.77039
402.2,11.8819,0.660997,-2.77714
404.6,11.955,0.675243,-2.78406
407,12.0284,0.688296,-2.79095
409.4,12.1019,0.697374,-2.79757
411.8,12.175,0.718836,-2.8072
414.2,12.2475,0.719031,-2.81627
416.6,12.3221,0.732026,-2.82642
419,12.3952,0.729282,-2.83747
421.4,12.4685,0.71763,-2.84915
423.8,12.5423,0.714754,-2.86143
426.2,12.6158,0.700382,-2.87555
428.6,12.6895,0.687202,-2.88842
431,12.7631,0.670635,-2.90339
433.4,12.8369,0.654106,-2.91873
435.8,12.911,0.644294,-2.93552
438.2,12.9849,0.631072,-2.95324
440.6,13.0592,0.6314,-2.97329
443,13.1327,0.614853,-2.99434
445.4,13.2074,0.625219,-3.01568
447.8,13.2817,0.644738,-3.03855
450.2,13.3562,0.670187,-3.06119
452.6,13.431,0.704899,-3.08646
455,13.5054,0.751511,-3.1144
457.4,13.58,0.807076,-3.1366
459.8,13.6551,0.861277,-3.1644
462.2,13.7301,0.921099,-3.19042
464.6,13.8048,0.974526,-3.21585
467,13.8801,1.00044,-3.24134
469.4,13.955,1.03725,-3.26775
471.8,14.0299,1.05441,-3.2941
474.2,14.1052,1.06472,-3.32026
476.6,14.1801,1.05233,-3.34552
479,14.2553,1.02736,-3.37149
481.4,14.3305,1.03089,-3.39504
483.8,14.4056,1.01434,-3.4205
486.2,14.4807,1.00008,-3.44459
488.6,14.5561,0.96772,-3.46662
491,14.6307,0.926754,-3.48874
493.4,14.7066,0.894326,-3.51109
495.8,14.7818,0.833306,-3.53206
498.2,14.8573,0.774764,-3.5498
500.6,14.9321,0.711826,-3.56944
503,15.0082,0.664845,-3.58762
505.4,15.0829,0.617889,-3.60282
507.8,15.1589,0.572367,-3.61796
510.2,15.2344,0.525293,-3.63083
512.6,15.3101,0.464697,-3.64423
515,15.3858,0.414335,-3.65567
517.4,15.4611,0.365861,-3.66375
519.8,15.5371,0.339372,-3.6749
522.2,15.6128,0.314137,-3.6828
524.6,15.6888,0.294313,-3.68891
527,15.7649,0.2701,-3.7013
529.4,15.8409,0.229328,-3.70735
531.8,15.9162,0.20246,-3.70917
534.2,15.9928,0.19115,-3.71363
536.6,16.0693,0.189539,-3.71646
539,16.1454,0.184676,-3.72085
541.4,16.2216,0.184463,-3.7264
543.8,16.2981,0.180675,-3.72718
546.2,16.3745,0.178342,-3.729
548.6,16.451,0.184503,-3.73104
551,16.5277,0.191309,-3.73162
553.4,16.6039,0.202898,-3.73298
555.8,16.6801,0.205255,-3.73557
558.2,16.7574,0.20761,-3.73689
560.6,16.8337,0.212762,-3.74117
563,16.9113,0.22796,-3.73938
565.4,16.9878,0.238344,-3.73942
567.8,17.0648,0.251013,-3.74024
570.2,17.1411,0.250615,-3.74074
572.6,17.2188,0.258982,-3.74206
575,17.296,0.268664,-3.74341
577.4,17.3728,0.271076,-3.74337
579.8,17.45,0.275653,-3.74238
582.2,17.527,0.282465,-3.74776
584.6,17.6046,0.291079,-3.74662
587,17.6817,0.287894,-3.74644
589.4,17.7588,0.288395,-3.74644
591.8,17.8365,0.289808,-3.74644
594.2,17.9137,0.296575,-3.74644
596.6,17.9913,0.290438,-3.74776
599,18.0685,0.290018,-3.74771
601.4,18.1458,0.279536,-3.74908
603.8,18.2236,0.271711,-3.74776
606.2,18.3008,0.275691,-3.74973
608.6,18.3789,0.269927,-3.75117
611,18.4561,0.269791,-3.75249
613.4,18.534,0.257456,-3.74843
615.8,18.6115,0.2504,-3.74852
618.2,18.6894,0.243331,-3.74722
620.6,18.7668,0.238813,-3.75022
623,18.8447,0.227862,-3.75116
625.4,18.9225,0.220734,-3.75117
627.8,19.0001,0.206189,-3.75083
630.2,19.0778,0.207321,-3.75239
632.6,19.1554,0.193241,-3.75117
635,19.2332,0.182081,-3.75106
637.4,19.311,0.165819,-3.75022
639.8,19.3889,0.162051,-3.7466
642.2,19.4668,0.139699,-3.75182
644.6,19.5446,0.129207,-3.75149
647,19.6227,0.11808,-3.75149
649.4,19.7007,0.104009,-3.75149
651.8,19.7791,0.0866496,-3.75149
654.2,19.8573,0.0799898,-3.75277
656.6,19.9352,0.0661283,-3.7515
659,20.0132,0.0700304,-3.7515
661.4,20.0916,0.0737239,-3.75018
663.8,20.1702,0.103529,-3.74919
666.2,20.2481,0.0990328,-3.74968
668.6,20.3267,0.114876,-3.75229
671,20.405,0.0819785,-3.75261
673.4,20.4835,0.0906702,-3.75292
675.8,20.5626,0.113691,-3.75292
678.2,20.6412,0.109152,-3.75361
680.6,20.7191,0.10982,-3.75456
683,20.7985,0.102426,-3.75323
685.4,20.8774,0.111855,-3.75194
687.8,20.9561,0.0968706,-3.75325
690.2,21.035,0.0887239,-3.75553
692.6,21.1138,0.0875947,-3.75437
695,21.1925,0.0697105,-3.75249
697.4,21.2718,0.0755583,-3.75149
699.8,21.351,0.0631199,-3.75265
702.2,21.4299,0.0636614,-3.75116
704.6,21.5087,0.0554334,-3.74982
707,21.5881,0.0634609,-3.75379
709.4,21.6675,0.0461082,-3.75379
711.8,21.7467,0.0321509,-3.75253
714.2,21.8263,0.0383086,-3.75347
716.6,21.9052,0.0261077,-3.75348
719,21.9846,0.00945752,-3.75317
721.4,22.0638,0.00786702,-3.75354
723.8,22.1434,-0.00559817,-3.75346
726.2,22.2221,-0.019942,-3.75338
728.6,22.3019,-0.0180472,-3.75117
731,22.381,-0.0189812,-3.75248
733.4,22.4607,-0.0349637,-3.75216
735.8,22.5403,-0.0293106,-3.75223
738.2,22.6191,-0.0317008,-3.75347
740,22.6794,-0.0408164,-3.75348