Folder: fsri_materials_database/01_Data/Helmet_Tetrahedron/STA/N2/30K_min (part 3)

File: Helmet_Tetrahedron_STA_N2_30KData_250528_R5.csv
Temp./C,Time/min,DSC/(mW/mg),Mass loss/mg
35.0,0.0,1.1843,0.00791894
37.4,0.150035,1.39362,0.00331918
39.8,0.286253,1.57977,0.00563256
42.2,0.411364,1.73417,0.00604361
44.6,0.530773,1.88224,-0.000615193
47,0.645222,2.01069,0.00718503
49.4,0.755888,2.13566,0.00928896
51.8,0.863016,2.25151,0.00731129
54.2,0.966731,2.36192,0.00695516
56.6,1.06859,2.47031,0.00475593
59,1.16876,2.58621,0.00399759
61.4,1.26686,2.66612,0.00574088
63.8,1.36272,2.72391,0.00657348
66.2,1.45775,2.75437,0.00560097
68.6,1.55132,2.7743,0.00593156
71,1.64353,2.80917,0.00732293
73.4,1.73576,2.82992,0.00502415
75.8,1.82658,2.87106,0.00243584
78.2,1.91655,2.92272,0.000932681
80.6,2.00614,2.94408,0.00221553
83,2.09472,2.98243,0.00516409
85.4,2.18238,3.02691,0.00772265
87.8,2.26898,3.06591,0.00712998
90.2,2.35514,3.11378,0.0076218
92.6,2.44064,3.15899,0.00469336
95,2.52482,3.20214,0.00348286
97.4,2.60895,3.25832,0.00452509
99.8,2.69188,3.31094,0.00456532
102.2,2.77459,3.3603,0.0036439
104.6,2.85708,3.40849,0.00611957
107,2.93948,3.45458,0.00615368
109.4,3.0208,3.51164,0.00361491
111.8,3.10286,3.55205,0.00233973
114.2,3.18282,3.60454,0.00217783
116.6,3.26412,3.65207,0.000769495
119,3.34459,3.69947,0.00208912
121.4,3.42452,3.7375,0.00341001
123.8,3.50401,3.77404,0.00229218
126.2,3.58319,3.81564,0.0033614
128.6,3.66163,3.86153,0.00418504
131,3.7397,3.89451,0.00240356
133.4,3.81782,3.92772,0.00319698
135.8,3.8951,3.96352,0.00318406
138.2,3.97221,4.00128,0.00161949
140.6,4.04875,4.03137,0.00335036
143,4.12533,4.06087,0.000322064
145.4,4.20086,4.10497,-0.00156604
147.8,4.2758,4.13763,-0.00246965
150.2,4.35181,4.16272,-0.00272914
152.6,4.42723,4.1919,-0.0026981
155,4.50202,4.232,-0.00383029
157.4,4.57692,4.27656,-0.00253668
159.8,4.65157,4.30722,-0.00105436
162.2,4.72638,4.34332,-0.000219973
164.6,4.80055,4.4062,-0.00021991
167,4.87473,4.4559,-0.00265805
169.4,4.94855,4.49085,-0.00394013
171.8,5.02233,4.50936,-0.00399809
174.2,5.09575,4.51795,-0.00462074
176.6,5.16956,4.52492,-0.00582355
179,5.2424,4.53579,-0.00718323
181.4,5.31544,4.55786,-0.00723826
183.8,5.38834,4.56751,-0.00632909
186.2,5.46104,4.56685,-0.00622336
188.6,5.53365,4.57955,-0.00977614
191,5.60559,4.59798,-0.0110895
193.4,5.67776,4.5946,-0.0112397
195.8,5.74974,4.61579,-0.0137098
198.2,5.82172,4.62218,-0.01371
200.6,5.89339,4.61674,-0.0137509
203,5.9649,4.60943,-0.0123999
205.4,6.03679,4.60339,-0.0137327
207.8,6.10842,4.60917,-0.0149471
210.2,6.17969,4.59218,-0.0163368
212.6,6.25135,4.59005,-0.0177156
215,6.32255,4.60396,-0.0176701
217.4,6.39388,4.59181,-0.0189872
219.8,6.46535,4.58512,-0.0203091
222.2,6.53642,4.57559,-0.0217076
224.6,6.60733,4.56232,-0.0185393
227,6.67871,4.54911,-0.022391
229.4,6.7496,4.54467,-0.0259764
231.8,6.82056,4.50967,-0.0268178
234.2,6.89172,4.48917,-0.0289848
236.6,6.96248,4.45269,-0.0310898
239,7.03324,4.42409,-0.0323858
241.4,7.10439,4.38928,-0.0360044
243.8,7.17484,4.34312,-0.038987
246.2,7.2457,4.29621,-0.0418541
248.6,7.31624,4.22802,-0.0469816
251,7.38698,4.20117,-0.0510459
253.4,7.45846,4.35449,-0.0562316
255.8,7.52977,4.67556,-0.0619845
258.2,7.60186,4.89847,-0.0713196
260.6,7.67244,5.04784,-0.0819839
263,7.74431,5.14087,-0.0905635
265.4,7.81514,5.21711,-0.100549
267.8,7.88609,5.28308,-0.112334
270.2,7.95692,5.34442,-0.115996
272.6,8.02816,5.41892,-0.137812
275,8.0991,5.49756,-0.153607
277.4,8.17023,5.58529,-0.169213
279.8,8.24154,5.69461,-0.188325
282.2,8.31294,5.80334,-0.206647
284.6,8.38442,5.94167,-0.227672
287,8.45554,6.09321,-0.252027
289.4,8.52697,6.26927,-0.278283
291.8,8.59848,6.46481,-0.308567
294.2,8.67052,6.68714,-0.343031
296.6,8.74227,6.93439,-0.383253
299,8.814,7.1933,-0.430233
301.4,8.88589,7.47466,-0.480664
303.8,8.95773,7.7936,-0.537141
306.2,9.03025,8.11955,-0.602357
308.6,9.10223,8.47044,-0.677332
311,9.1738,8.80033,-0.760956
313.4,9.24686,9.1541,-0.853225
315.8,9.31891,9.46666,-0.953071
318.2,9.39078,9.71343,-1.06686
320.6,9.46264,9.85912,-1.18792
323,9.53384,9.87561,-1.31515
325.4,9.60457,9.73558,-1.43829
327.8,9.67517,9.4851,-1.56243
330.2,9.746,9.38428,-1.68569
332.6,9.81703,9.07974,-1.80667
335,9.88708,8.50058,-1.90803
337.4,9.9565,7.88075,-1.99929
339.8,10.0261,7.31145,-2.08196
342.2,10.0959,6.75847,-2.15569
344.6,10.1663,6.21383,-2.21897
347,10.2362,5.6765,-2.2725
349.4,10.3061,5.12783,-2.32021
351.8,10.3756,4.58896,-2.36362
354.2,10.4461,4.05288,-2.39761
356.6,10.516,3.5511,-2.42547
359,10.5863,3.08319,-2.45312
361.4,10.6569,2.66203,-2.47711
363.8,10.7278,2.2952,-2.50022
366.2,10.7987,1.96624,-2.51736
368.6,10.8699,1.72162,-2.53333
371,10.9406,1.49194,-2.54598
373.4,11.0131,1.34268,-2.55881
375.8,11.085,1.21524,-2.56713
378.2,11.1574,1.12511,-2.57698
380.6,11.2296,1.06491,-2.58532
383,11.302,1.02029,-2.59286
385.4,11.3746,1.00482,-2.59977
387.8,11.4474,0.994224,-2.60543
390.2,11.5201,1.00613,-2.61251
392.6,11.5931,1.01513,-2.61885
395,11.6662,1.03374,-2.62508
397.4,11.7393,1.05115,-2.63345
399.8,11.812,1.08757,-2.64013
402.2,11.8854,1.10025,-2.64481
404.6,11.959,1.10875,-2.65365
407,12.032,1.12542,-2.66306
409.4,12.1053,1.14632,-2.67095
411.8,12.1788,1.14703,-2.67887
414.2,12.2522,1.15493,-2.68821
416.6,12.3257,1.16845,-2.6966
419,12.3991,1.16609,-2.71001
421.4,12.4728,1.16233,-2.72202
423.8,12.5465,1.14328,-2.73367
426.2,12.6201,1.13515,-2.74553
428.6,12.6937,1.1215,-2.76542
431,12.7669,1.09832,-2.77489
433.4,12.8413,1.07619,-2.78939
435.8,12.9157,1.0559,-2.80727
438.2,12.9892,1.03235,-2.82723
440.6,13.0635,1.01585,-2.84732
443,13.1377,1.00291,-2.86949
445.4,13.2121,0.99369,-2.89111
447.8,13.2864,1.00013,-2.91382
450.2,13.3608,1.00041,-2.93624
452.6,13.4357,1.02566,-2.96137
455,13.5102,1.05607,-2.98769
457.4,13.5851,1.10357,-3.01646
459.8,13.6603,1.15236,-3.04732
462.2,13.7355,1.22239,-3.07654
464.6,13.8102,1.27988,-3.10574
467,13.8857,1.33602,-3.13874
469.4,13.961,1.39779,-3.16576
471.8,14.0362,1.45,-3.19493
474.2,14.1117,1.48211,-3.22115
476.6,14.187,1.47941,-3.25498
479,14.2623,1.464,-3.28339
481.4,14.3377,1.44202,-3.3135
483.8,14.4129,1.39113,-3.33985
486.2,14.4882,1.35405,-3.36178
488.6,14.5638,1.3305,-3.38374
491,14.639,1.29172,-3.39935
493.4,14.7146,1.245,-3.42077
495.8,14.7901,1.19644,-3.45288
498.2,14.8657,1.13472,-3.47074
500.6,14.9414,1.08174,-3.48922
503,15.0169,1.02143,-3.50467
505.4,15.093,0.971634,-3.51984
507.8,15.1688,0.915222,-3.53471
510.2,15.2438,0.872716,-3.54444
512.6,15.3201,0.818333,-3.55478
515,15.3959,0.75057,-3.57353
517.4,15.4719,0.691729,-3.58417
519.8,15.5481,0.652775,-3.59015
522.2,15.6241,0.615138,-3.59744
524.6,15.7007,0.560192,-3.60503
527,15.7772,0.52817,-3.61276
529.4,15.8535,0.494324,-3.62074
531.8,15.9296,0.467046,-3.62269
534.2,16.0061,0.438253,-3.62749
536.6,16.0826,0.446308,-3.63102
539,16.159,0.427733,-3.63523
541.4,16.2357,0.42124,-3.63668
543.8,16.3125,0.411629,-3.63797
546.2,16.3893,0.415128,-3.64105
548.6,16.466,0.406121,-3.64489
551,16.5434,0.400645,-3.64511
553.4,16.62,0.407845,-3.64768
555.8,16.6969,0.420422,-3.64905
558.2,16.774,0.408523,-3.64934
560.6,16.8509,0.41401,-3.65027
563,16.9279,0.412926,-3.65169
565.4,17.0051,0.415771,-3.6524
567.8,17.0821,0.422943,-3.65433
570.2,17.1593,0.422764,-3.65375
572.6,17.2366,0.417261,-3.65285
575,17.3139,0.427637,-3.65444
577.4,17.3914,0.420816,-3.6572
579.8,17.4685,0.421943,-3.65925
582.2,17.5462,0.413749,-3.66026
584.6,17.6236,0.416525,-3.65894
587,17.7012,0.410221,-3.65927
589.4,17.779,0.40835,-3.65796
591.8,17.8567,0.408262,-3.65795
594.2,17.9342,0.408155,-3.65926
596.6,18.012,0.407545,-3.66059
599,18.0901,0.406938,-3.66321
601.4,18.1678,0.406719,-3.66469
603.8,18.2457,0.396724,-3.66449
606.2,18.3235,0.404875,-3.6632
608.6,18.4015,0.402892,-3.6619
611,18.4796,0.41068,-3.6619
613.4,18.5577,0.392583,-3.66058
615.8,18.6356,0.398554,-3.66058
618.2,18.7138,0.393872,-3.66057
620.6,18.7917,0.380686,-3.66236
623,18.8699,0.383709,-3.66634
625.4,18.948,0.375733,-3.6664
627.8,19.0264,0.367169,-3.6664
630.2,19.1046,0.366147,-3.6664
632.6,19.1829,0.364212,-3.6664
635,19.2608,0.34724,-3.66639
637.4,19.339,0.35134,-3.66496
639.8,19.4178,0.356527,-3.669
642.2,19.4958,0.350821,-3.66668
644.6,19.5743,0.354581,-3.66547
647,19.6526,0.35259,-3.66487
649.4,19.7308,0.3502,-3.66772
651.8,19.8094,0.354185,-3.66772
654.2,19.8878,0.351397,-3.66772
656.6,19.9661,0.351676,-3.66767
659,20.0444,0.34435,-3.66886
661.4,20.1229,0.33438,-3.66772
663.8,20.2013,0.321643,-3.66772
666.2,20.2799,0.327473,-3.66772
668.6,20.3583,0.318249,-3.67032
671,20.4371,0.309877,-3.67141
673.4,20.5156,0.301193,-3.6718
675.8,20.5943,0.298961,-3.67314
678.2,20.6731,0.293477,-3.67177
680.6,20.7516,0.295613,-3.67035
683,20.8303,0.283436,-3.66904
685.4,20.9091,0.270927,-3.67088
687.8,20.9876,0.257169,-3.67042
690.2,21.0662,0.251538,-3.67035
692.6,21.1449,0.240338,-3.66908
695,21.2241,0.238024,-3.66982
697.4,21.3026,0.240044,-3.66981
699.8,21.3814,0.250034,-3.67113
702.2,21.4605,0.245299,-3.67244
704.6,21.5392,0.230999,-3.67442
707,21.6182,0.222844,-3.67442
709.4,21.6971,0.223492,-3.67255
711.8,21.7761,0.204911,-3.67211
714.2,21.8548,0.205789,-3.67211
716.6,21.9339,0.1935,-3.67211
719,22.0133,0.193115,-3.67178
721.4,22.0926,0.176234,-3.67338
723.8,22.1717,0.15747,-3.67768
726.2,22.2507,0.151056,-3.67804
728.6,22.3301,0.144858,-3.6781
731,22.4095,0.130306,-3.67499
733.4,22.4889,0.108585,-3.67364
735.8,22.568,0.0825599,-3.67626
738.2,22.6475,0.0823303,-3.67497
740,22.707,0.0578137,-3.67365