Folder: fsri_materials_database/01_Data/High_Temp_Nylon_SCBA_Nosecup/STA/N2/10K_min (part 2)

File: High_Temp_Nylon_SCBA_Nosecup_STA_N2_10KData_251013_R3.csv
Temp./C,Time/min,DSC/(mW/mg),Mass loss/mg
50.0,0.0,0.785119,-0.00885975
52.5,0.331065,0.849228,-0.00710576
55,0.646403,0.897517,-0.00735272
57.5,0.949333,0.937437,-0.0070208
60,1.24461,0.977776,-0.00713984
62.5,1.53083,1.00542,-0.00712996
65,1.81154,1.04127,-0.00775154
67.5,2.08596,1.07237,-0.00744418
70,2.35447,1.08887,-0.00846928
72.5,2.62167,1.10236,-0.0071708
75,2.88521,1.11995,-0.00707586
77.5,3.14514,1.14375,-0.00713419
80,3.40193,1.16153,-0.00977717
82.5,3.6589,1.19017,-0.00713118
85,3.91094,1.2131,-0.00843246
87.5,4.16377,1.24183,-0.00844974
90,4.41438,1.26696,-0.00971877
92.5,4.66182,1.29375,-0.00845035
95,4.90829,1.31225,-0.00977003
97.5,5.1544,1.32189,-0.00845004
100,5.39819,1.32439,-0.00845
102.5,5.64207,1.33264,-0.00844998
105,5.88407,1.32726,-0.0089996
107.5,6.12632,1.33205,-0.00812002
110,6.36698,1.33721,-0.00845719
112.5,6.6083,1.34368,-0.00844966
115,6.8498,1.34826,-0.00975781
117.5,7.09099,1.3587,-0.00977
120,7.33239,1.36598,-0.00977203
122.5,7.57104,1.38635,-0.0084604
125,7.81134,1.40109,-0.00976996
127.5,8.05159,1.40804,-0.00976623
130,8.28989,1.41847,-0.01108
132.5,8.52905,1.43045,-0.0097688
135,8.76664,1.44656,-0.0122189
137.5,9.00495,1.46113,-0.01108
140,9.24331,1.48005,-0.01108
142.5,9.47777,1.48508,-0.0104284
145,9.71844,1.49189,-0.00940963
147.5,9.95506,1.50219,-0.0111247
150,10.1891,1.51528,-0.00865817
152.5,10.4287,1.53031,-0.01207
155,10.6648,1.538,-0.01207
157.5,10.9015,1.5381,-0.0116533
160,11.1378,1.55244,-0.0123968
162.5,11.374,1.56929,-0.01338
165,11.6086,1.57663,-0.0120706
167.5,11.8454,1.58099,-0.01207
170,12.0823,1.59525,-0.0120693
172.5,12.3176,1.5934,-0.01109
175,12.5536,1.59747,-0.0124001
177.5,12.7906,1.60479,-0.0123987
180,13.0263,1.59701,-0.0140519
182.5,13.261,1.62359,-0.01306
185,13.4973,1.62632,-0.01404
187.5,13.7325,1.63847,-0.013075
190,13.9682,1.63846,-0.0146946
192.5,14.2033,1.64676,-0.01405
195,14.4402,1.65949,-0.01405
197.5,14.6738,1.67388,-0.01405
200,14.9095,1.69292,-0.01404
202.5,15.145,1.69833,-0.01405
205,15.3798,1.70465,-0.0151444
207.5,15.615,1.71549,-0.0137201
210,15.8486,1.7252,-0.0137215
212.5,16.0852,1.72918,-0.01372
215,16.3201,1.74606,-0.01503
217.5,16.5556,1.76059,-0.01471
220,16.7907,1.77005,-0.013362
222.5,17.0271,1.78233,-0.0143829
225,17.2627,1.78051,-0.01471
227.5,17.499,1.80688,-0.0163491
230,17.7353,1.83032,-0.01635
232.5,17.972,1.84563,-0.01504
235,18.2079,1.86467,-0.0150387
237.5,18.4438,1.88076,-0.018
240,18.6794,1.91093,-0.0166748
242.5,18.9161,1.9664,-0.01668
245,19.1535,2.06026,-0.0166797
247.5,19.3899,2.22387,-0.01734
250,19.6308,2.56705,-0.0173607
252.5,19.8729,3.07304,-0.0180001
255,20.1144,3.45771,-0.0166586
257.5,20.3555,3.8441,-0.018
260,20.5952,4.09009,-0.01668
262.5,20.823,3.15263,-0.01701
265,21.0464,2.11497,-0.01833
267.5,21.2793,1.86259,-0.01932
270,21.5115,1.82177,-0.018
272.5,21.7495,1.82186,-0.0179998
275,21.9829,1.8207,-0.018
277.5,22.2212,1.80835,-0.0166779
280,22.4577,1.81328,-0.0203
282.5,22.693,1.82378,-0.0189799
285,22.9313,1.8136,-0.0209635
287.5,23.1692,1.82314,-0.021293
290,23.4073,1.82561,-0.0203
292.5,23.6444,1.80925,-0.01899
295,23.8823,1.81898,-0.0222767
297.5,24.1208,1.82886,-0.02228
300,24.3575,1.81821,-0.01998
302.5,24.5965,1.8168,-0.02261
305,24.8347,1.82245,-0.0233781
307.5,25.0738,1.84053,-0.02261
310,25.3125,1.82539,-0.0232327
312.5,25.5511,1.83643,-0.02459
315,25.79,1.83597,-0.02525
317.5,26.0285,1.83171,-0.0258996
320,26.2679,1.84568,-0.02656
322.5,26.5071,1.85346,-0.0259102
325,26.7452,1.87253,-0.02986
327.5,26.9823,1.87249,-0.0298602
330,27.2232,1.88533,-0.03084
332.5,27.4615,1.89185,-0.03315
335,27.7012,1.91713,-0.03315
337.5,27.9415,1.94786,-0.03447
340,28.1788,1.97626,-0.0364502
342.5,28.4208,2.01105,-0.0387429
345,28.6612,2.04427,-0.04238
347.5,28.9012,2.07481,-0.0450101
350,29.1415,2.1079,-0.0489792
352.5,29.3823,2.12274,-0.0502419
355,29.6236,2.13418,-0.0555394
357.5,29.8653,2.15889,-0.0596322
360,30.1061,2.18866,-0.0647549
362.5,30.3478,2.23944,-0.0692722
365,30.5897,2.28816,-0.0785445
367.5,30.8315,2.36184,-0.0842724
370,31.0743,2.45905,-0.0941768
372.5,31.317,2.56468,-0.105214
375,31.559,2.67688,-0.11966
377.5,31.8026,2.80156,-0.134049
380,32.046,2.9318,-0.153803
382.5,32.2896,3.07588,-0.175745
385,32.5332,3.2386,-0.19983
387.5,32.7775,3.40006,-0.229003
390,33.0215,3.57409,-0.261452
392.5,33.2663,3.74271,-0.299105
395,33.5098,3.90413,-0.341519
397.5,33.7539,4.06786,-0.387437
400,33.9972,4.20312,-0.440764
402.5,34.2413,4.3143,-0.497964
405,34.4864,4.39461,-0.55811
407.5,34.7285,4.43431,-0.621378
410,34.9718,4.45532,-0.689695
412.5,35.2147,4.45709,-0.755498
415,35.4565,4.43104,-0.826222
417.5,35.6996,4.39749,-0.900605
420,35.9421,4.32221,-0.974533
422.5,36.1836,4.2343,-1.05398
425,36.4262,4.12166,-1.13091
427.5,36.667,3.9606,-1.2034
430,36.9089,3.76309,-1.28163
432.5,37.1502,3.52568,-1.35822
435,37.3925,3.2378,-1.43328
437.5,37.6328,2.94121,-1.50352
440,37.8729,2.62242,-1.57296
442.5,38.1144,2.34137,-1.63219
445,38.3554,2.09419,-1.68758
447.5,38.598,1.90724,-1.73774
450,38.8427,1.7853,-1.78372
452.5,39.0872,1.7108,-1.8264
455,39.3315,1.6731,-1.858
457.5,39.577,1.63206,-1.88424
460,39.8219,1.62467,-1.94528
462.5,40.0656,1.61726,-1.99116
465,40.3131,1.59387,-2.03979
467.5,40.5577,1.56635,-2.09023
470,40.8048,1.55909,-2.12847
472.5,41.0504,1.52966,-2.18964
475,41.2958,1.50859,-2.23058
477.5,41.5415,1.46525,-2.29082
480,41.7877,1.41214,-2.3047
482.5,42.032,1.3235,-2.35518
485,42.2759,1.20241,-2.33946
487.5,42.519,1.05219,-2.37588
490,42.7616,0.906349,-2.37273
492.5,43.0036,0.756446,-2.42614
495,43.247,0.640307,-2.51757
497.5,43.4914,0.537765,-2.52737
500,43.7374,0.487641,-2.53982
502.5,43.9804,0.432696,-2.54749
505,44.2272,0.443234,-2.55418
507.5,44.4733,0.4299,-2.56083
510,44.7201,0.425337,-2.56375
512.5,44.9652,0.429194,-2.56639
515,45.2121,0.419985,-2.56902
517.5,45.4584,0.407724,-2.57205
520,45.7055,0.402577,-2.57429
522.5,45.9525,0.396118,-2.57396
525,46.2004,0.416335,-2.57528
527.5,46.4485,0.409448,-2.57659
530,46.6956,0.394948,-2.57791
532.5,46.9439,0.378347,-2.57798
535,47.1927,0.36694,-2.57693
537.5,47.4403,0.353276,-2.57956
540,47.6881,0.353825,-2.57693
542.5,47.9367,0.33893,-2.57792
545,48.1847,0.318361,-2.57956
547.5,48.4315,0.315163,-2.57956
550,48.6798,0.30105,-2.57956
552.5,48.9277,0.299442,-2.58152
555,49.1744,0.290845,-2.58088
557.5,49.4242,0.28301,-2.58197
560,49.6731,0.277731,-2.58088
562.5,49.9222,0.278265,-2.58088
565,50.171,0.273685,-2.58154
567.5,50.4203,0.27003,-2.58173
570,50.6686,0.255649,-2.58127
572.5,50.9186,0.25359,-2.58055
575,51.1681,0.257803,-2.5812
577.5,51.4175,0.239187,-2.57955
580,51.6677,0.232056,-2.57955
582.5,51.9175,0.236743,-2.58087
585,52.1674,0.2426,-2.57955
587.5,52.4174,0.243457,-2.57824
590,52.6675,0.23679,-2.5789
592.5,52.9175,0.233682,-2.57889
595,53.1683,0.234666,-2.58186
597.5,53.4181,0.225498,-2.58055
600,53.6704,0.226006,-2.57937
602.5,53.9205,0.237561,-2.58305
605,54.1714,0.236906,-2.58087
607.5,54.422,0.227501,-2.58186
610,54.6706,0.226143,-2.58022
612.5,54.9229,0.217027,-2.58022
615,55.1726,0.210174,-2.57988
617.5,55.4242,0.205182,-2.58021
620,55.6743,0.210492,-2.58252
622.5,55.9254,0.206764,-2.58121
625,56.1768,0.202228,-2.58154
627.5,56.4283,0.204475,-2.58121
630,56.6791,0.184171,-2.58121
632.5,56.9325,0.179362,-2.58154
635,57.184,0.172302,-2.58329
637.5,57.435,0.170178,-2.58417
640,57.6885,0.158754,-2.58417
642.5,57.9397,0.159517,-2.58318
645,58.1897,0.142769,-2.58318
647.5,58.444,0.134169,-2.58318
650,58.6958,0.122809,-2.5822
652.5,58.9487,0.120322,-2.5822
655,59.2001,0.103599,-2.58352
657.5,59.4523,0.100403,-2.5822
660,59.7038,0.0815833,-2.58253
662.5,59.9549,0.0934934,-2.58252
665,60.208,0.0855024,-2.58351
667.5,60.4595,0.0760625,-2.58451
670,60.7128,0.0659133,-2.5845
672.5,60.9651,0.0649197,-2.5845
675,61.2184,0.0480274,-2.5845
677.5,61.4692,0.0405068,-2.58319
680,61.7209,0.0411113,-2.5845
682.5,61.9736,0.015702,-2.58219
685,62.2254,0.0260513,-2.58351
687.5,62.4764,0.018579,-2.58384
690,62.7277,0.00986669,-2.58516
692.5,62.98,0.0111233,-2.58384
695,63.2294,0.0119217,-2.58647
697.5,63.4839,0.01023,-2.58385
700,63.7365,0.0115109,-2.58549
702.5,63.989,0.0191699,-2.58681
705,64.2411,0.0150784,-2.58748
707.5,64.4938,0.0111956,-2.58615
710,64.7475,-0.00167993,-2.58582
712.5,65.0007,-0.00205402,-2.58549
715,65.2534,-0.00815771,-2.58623
717.5,65.5062,-0.00954529,-2.58499
720,65.7588,-0.00448656,-2.58186
722.5,66.0113,-0.0164676,-2.58318
725,66.2647,-0.00452474,-2.58385
727.5,66.5186,-0.0149927,-2.58482
730,66.7724,-0.0125794,-2.58615
732.5,67.0257,-0.0069958,-2.58747
735,67.2801,-0.000276314,-2.58647
737.5,67.5335,-0.00610766,-2.58834
740,67.7864,-0.010116,-2.58845
742.5,68.0388,-0.00432815,-2.59043
745,68.291,-0.00406604,-2.59043
747.5,68.5435,-0.0122446,-2.59175
750,68.7928,-0.0252051,-2.59175
752.5,69.0461,-0.015087,-2.59405
755,69.2986,-0.0147098,-2.59406
757.5,69.5521,-0.0147659,-2.59405
760,69.8062,-0.0301096,-2.6449
762.5,70.0607,-0.03664,-2.6317
765,70.316,-0.0311551,-2.62323
767.5,70.569,-0.0485228,-2.61824
770,70.823,-0.0472957,-2.61403
772.5,71.0752,-0.0406072,-2.61225
775,71.3292,-0.0501995,-2.60865
777.5,71.5813,-0.0528216,-2.60865
780,71.8346,-0.0515249,-2.6068
782.5,72.0877,-0.0473035,-2.60602
785,72.3428,-0.039883,-2.60471
787.5,72.5957,-0.048264,-2.60371
790,72.8487,-0.0425438,-2.60207