Folder: fsri_materials_database/01_Data/High_Temp_Nylon_SCBA_Nosecup/STA/N2/10K_min

File: High_Temp_Nylon_SCBA_Nosecup_STA_N2_10KData_251009_R1.csv
Temp./C,Time/min,DSC/(mW/mg),Mass loss/mg
50.0,0.0,0.662488,-0.0104949
52.5,0.328969,0.704443,-0.00986098
55,0.642821,0.752975,-0.0111923
57.5,0.945845,0.80102,-0.0102761
60,1.23873,0.831294,-0.011091
62.5,1.52426,0.862601,-0.0115215
65,1.80448,0.886762,-0.0112592
67.5,2.07926,0.899994,-0.01109
70,2.34794,0.918295,-0.0119361
72.5,2.61252,0.940537,-0.0111998
75,2.87404,0.951417,-0.0104547
77.5,3.13363,0.982883,-0.00978521
80,3.39013,0.993536,-0.01109
82.5,3.64777,1.01323,-0.0119429
85,3.89963,1.02416,-0.0110901
87.5,4.15065,1.04138,-0.0124079
90,4.40114,1.06612,-0.0125201
92.5,4.64918,1.09008,-0.0125198
95,4.89453,1.10219,-0.0121675
97.5,5.13997,1.11459,-0.0138399
100,5.38418,1.12148,-0.0130745
102.5,5.6256,1.11298,-0.01317
105,5.86958,1.11817,-0.012094
107.5,6.10839,1.11134,-0.012075
110,6.34926,1.1127,-0.01274
112.5,6.58918,1.11551,-0.0133894
115,6.83043,1.11683,-0.0134
117.5,7.07107,1.13447,-0.0147052
120,7.31097,1.1381,-0.0124096
122.5,7.54926,1.13983,-0.0114891
125,7.79205,1.14757,-0.0124
127.5,8.03141,1.15948,-0.0111998
130,8.26954,1.16349,-0.01241
132.5,8.50889,1.17742,-0.0133898
135,8.74615,1.18827,-0.01142
137.5,8.98233,1.20646,-0.0120751
140,9.22038,1.21561,-0.0124101
142.5,9.45765,1.21741,-0.01241
145,9.69491,1.22885,-0.0124099
147.5,9.93252,1.23583,-0.01208
150,10.168,1.24651,-0.0110902
152.5,10.4046,1.25522,-0.01241
155,10.6402,1.26179,-0.01239
157.5,10.8756,1.26837,-0.0124634
160,11.1122,1.2735,-0.0111205
162.5,11.347,1.28224,-0.0090492
165,11.5837,1.28139,-0.0113955
167.5,11.82,1.30006,-0.0120608
170,12.0538,1.3038,-0.00944999
172.5,12.292,1.30856,-0.01076
175,12.5272,1.31035,-0.0110902
177.5,12.7628,1.31672,-0.0120729
180,13.0004,1.32242,-0.0113853
182.5,13.2361,1.33585,-0.0104385
185,13.4709,1.33784,-0.0113038
187.5,13.7052,1.34525,-0.00977
190,13.942,1.3499,-0.0101
192.5,14.1754,1.35098,-0.01076
195,14.4134,1.36131,-0.00944
197.5,14.6492,1.36626,-0.00939318
200,14.8853,1.37592,-0.00846411
202.5,15.1217,1.38707,-0.00846
205,15.3583,1.3917,-0.00879
207.5,15.5949,1.41081,-0.0101002
210,15.8313,1.41738,-0.00911
212.5,16.0667,1.42742,-0.00911
215,16.3042,1.43936,-0.00912
217.5,16.5409,1.45178,-0.00813
220,16.7787,1.46288,-0.00944244
222.5,17.0138,1.47494,-0.00845302
225,17.2516,1.48613,-0.00945001
227.5,17.4877,1.50142,-0.00909527
230,17.7207,1.51656,-0.00843956
232.5,17.9608,1.53357,-0.00889198
235,18.196,1.54943,-0.00846
237.5,18.4319,1.56112,-0.00846
240,18.6694,1.59175,-0.00976717
242.5,18.9054,1.63257,-0.00812
245,19.1432,1.72578,-0.00813009
247.5,19.3822,1.89168,-0.00879
250,19.623,2.25029,-0.0081892
252.5,19.8652,2.74877,-0.00813
255,20.1066,3.13199,-0.00680895
257.5,20.3477,3.49785,-0.00812267
260,20.5872,3.73846,-0.00545128
262.5,20.8139,2.73244,-0.00779
265,21.0383,1.74724,-0.00647
267.5,21.2711,1.51261,-0.00712977
270,21.5052,1.4645,-0.00648
272.5,21.7434,1.45345,-0.00648032
275,21.9781,1.45931,-0.00648
277.5,22.2162,1.45547,-0.00648082
280,22.4534,1.45454,-0.00648
282.5,22.6899,1.45883,-0.00549
285,22.9265,1.4688,-0.00747
287.5,23.1645,1.47266,-0.0054914
290,23.4012,1.46501,-0.00681
292.5,23.6396,1.47547,-0.00614064
295,23.8785,1.47212,-0.00691606
297.5,24.116,1.47004,-0.00704766
300,24.3547,1.46919,-0.0076356
302.5,24.5928,1.47998,-0.00714
305,24.8313,1.47889,-0.00813015
307.5,25.0689,1.48181,-0.00713
310,25.3075,1.49558,-0.00911
312.5,25.546,1.49787,-0.00878006
315,25.7849,1.50325,-0.0107647
317.5,26.0257,1.51356,-0.0114814
320,26.2639,1.52711,-0.0101
322.5,26.5041,1.52158,-0.0112732
325,26.7422,1.52512,-0.01142
327.5,26.9815,1.52939,-0.01274
330,27.2194,1.54198,-0.01208
332.5,27.4613,1.56341,-0.0134002
335,27.7004,1.59264,-0.01504
337.5,27.9408,1.60544,-0.01702
340,28.1805,1.62825,-0.01834
342.5,28.4194,1.65566,-0.01965
345,28.6598,1.67792,-0.0216289
347.5,28.8995,1.70065,-0.0258001
350,29.1396,1.71619,-0.0271193
352.5,29.3795,1.73328,-0.0307608
355,29.62,1.75667,-0.0356801
357.5,29.8621,1.77605,-0.0402926
360,30.1026,1.81882,-0.043794
362.5,30.3439,1.86892,-0.0508211
365,30.586,1.94107,-0.0561708
367.5,30.8278,2.02051,-0.0657622
370,31.0697,2.11963,-0.0739507
372.5,31.3121,2.22362,-0.0837146
375,31.5548,2.32885,-0.0991958
377.5,31.7991,2.46249,-0.114054
380,32.0417,2.60551,-0.132858
382.5,32.286,2.76531,-0.154933
385,32.5305,2.91133,-0.180421
387.5,32.7735,3.07944,-0.210203
390,33.0198,3.25883,-0.244096
392.5,33.2627,3.43612,-0.281528
395,33.5077,3.60289,-0.324791
397.5,33.7519,3.75716,-0.373913
400,33.9982,3.88933,-0.427833
402.5,34.242,4.00096,-0.48545
405,34.4859,4.08858,-0.547846
407.5,34.7301,4.13214,-0.611219
410,34.9727,4.14374,-0.679943
412.5,35.2158,4.13415,-0.751366
415,35.4566,4.09457,-0.823583
417.5,35.7001,4.05285,-0.89847
420,35.9419,3.97471,-0.977844
422.5,36.1844,3.87945,-1.05782
425,36.4256,3.74521,-1.13645
427.5,36.669,3.58643,-1.21658
430,36.9105,3.38625,-1.29454
432.5,37.1512,3.15317,-1.37286
435,37.3924,2.87112,-1.44413
437.5,37.6325,2.56784,-1.51284
440,37.8735,2.27055,-1.57457
442.5,38.1153,1.98338,-1.63203
445,38.3565,1.74129,-1.68241
447.5,38.5991,1.5505,-1.73015
450,38.8419,1.43314,-1.77142
452.5,39.086,1.35054,-1.81277
455,39.3293,1.3123,-1.85579
457.5,39.5772,1.27315,-1.89727
460,39.8196,1.26672,-1.93803
462.5,40.0651,1.2386,-1.98222
465,40.3101,1.22437,-2.02707
467.5,40.5548,1.20366,-2.07205
470,40.8006,1.17773,-2.12162
472.5,41.0466,1.13033,-2.16927
475,41.2923,1.12209,-2.21916
477.5,41.536,1.08394,-2.27006
480,41.7833,1.02105,-2.32351
482.5,42.0272,0.911763,-2.37177
485,42.2718,0.801044,-2.41912
487.5,42.5163,0.658024,-2.46103
490,42.7596,0.5137,-2.49233
492.5,43.0067,0.359679,-2.51696
495,43.2514,0.215819,-2.5306
497.5,43.4969,0.136909,-2.53945
500,43.7432,0.11446,-2.54345
502.5,43.9893,0.0832654,-2.54608
505,44.2372,0.0962187,-2.54608
507.5,44.4835,0.104574,-2.5474
510,44.7309,0.0870224,-2.54739
512.5,44.9782,0.0932705,-2.54872
515,45.2236,0.0601103,-2.55036
517.5,45.4717,0.0459158,-2.5497
520,45.7196,0.0490072,-2.55201
522.5,45.967,0.0437903,-2.5497
525,46.2142,0.0437729,-2.55102
527.5,46.4627,0.0358437,-2.55037
530,46.7102,0.0525593,-2.55201
532.5,46.9568,0.0433906,-2.55139
535,47.2033,0.0360744,-2.55233
537.5,47.4514,0.030806,-2.5507
540,47.6983,0.0317232,-2.55133
542.5,47.9472,0.0257044,-2.55069
545,48.1937,0.0203497,-2.55069
547.5,48.4416,0.0108821,-2.55135
550,48.6897,0.0242445,-2.55003
552.5,48.9363,0.00611949,-2.55168
555,49.1831,-0.000307296,-2.553
557.5,49.4319,-0.00509749,-2.55234
560,49.679,-0.0108483,-2.55234
562.5,49.9254,-0.0159946,-2.55102
565,50.176,-0.0221804,-2.55232
567.5,50.4246,-0.0283849,-2.55168
570,50.6727,-0.059302,-2.55168
572.5,50.9222,-0.0577144,-2.55136
575,51.1724,-0.0728188,-2.55234
577.5,51.4207,-0.0677708,-2.55168
580,51.6692,-0.0586693,-2.55234
582.5,51.9192,-0.0636787,-2.55197
585,52.1679,-0.0675091,-2.55201
587.5,52.4189,-0.0669111,-2.55254
590,52.6675,-0.0693614,-2.55256
592.5,52.9157,-0.092754,-2.55256
595,53.1645,-0.0945892,-2.55221
597.5,53.4143,-0.0810937,-2.5529
600,53.6636,-0.0888298,-2.55519
602.5,53.914,-0.0953734,-2.55387
605,54.1625,-0.104311,-2.55519
607.5,54.4127,-0.103266,-2.55519
610,54.6628,-0.109301,-2.55486
612.5,54.9128,-0.108349,-2.55519
615,55.1635,-0.112768,-2.55519
617.5,55.4137,-0.121253,-2.55388
620,55.6645,-0.117152,-2.55454
622.5,55.9136,-0.128054,-2.55454
625,56.1653,-0.139244,-2.55718
627.5,56.4162,-0.149331,-2.55519
630,56.6671,-0.153927,-2.55585
632.5,56.918,-0.161694,-2.55453
635,57.1687,-0.178604,-2.55717
637.5,57.4182,-0.190522,-2.55717
640,57.6684,-0.196926,-2.55586
642.5,57.9187,-0.213404,-2.55586
645,58.1691,-0.218213,-2.55586
647.5,58.4202,-0.230181,-2.55586
650,58.6707,-0.22838,-2.55717
652.5,58.9217,-0.23327,-2.55684
655,59.1737,-0.239419,-2.55717
657.5,59.4253,-0.250093,-2.55756
660,59.6783,-0.256537,-2.55783
662.5,59.9298,-0.264872,-2.56058
665,60.1809,-0.26327,-2.55794
667.5,60.4324,-0.27768,-2.55892
670,60.6843,-0.282897,-2.55794
672.5,60.9357,-0.292567,-2.55926
675,61.1866,-0.298421,-2.56068
677.5,61.4375,-0.307349,-2.55937
680,61.6884,-0.309863,-2.56004
682.5,61.9393,-0.317867,-2.562
685,62.1903,-0.335459,-2.56101
687.5,62.4414,-0.323337,-2.56101
690,62.6935,-0.312041,-2.56027
692.5,62.9458,-0.317182,-2.56134
695,63.1964,-0.328291,-2.56068
697.5,63.448,-0.319412,-2.56102
700,63.7,-0.315212,-2.56331
702.5,63.9523,-0.297986,-2.56233
705,64.2052,-0.288357,-2.56364
707.5,64.4566,-0.281071,-2.56222
710,64.7108,-0.283574,-2.56354
712.5,64.9637,-0.292315,-2.56222
715,65.2157,-0.298297,-2.56354
717.5,65.4696,-0.282953,-2.56419
720,65.723,-0.288163,-2.56287
722.5,65.9753,-0.280021,-2.56551
725,66.2284,-0.269142,-2.56551
727.5,66.4812,-0.26971,-2.56412
730,66.7345,-0.258622,-2.56552
732.5,66.9875,-0.261762,-2.56837
735,67.2397,-0.25424,-2.56529
737.5,67.4926,-0.241911,-2.56562
740,67.746,-0.234735,-2.56543
742.5,67.9989,-0.22816,-2.56562
745,68.2521,-0.214551,-2.56529
747.5,68.5038,-0.194124,-2.56595
750,68.7576,-0.19439,-2.56695
752.5,69.0121,-0.171068,-2.56563
755,69.2667,-0.167872,-2.56814
757.5,69.5216,-0.165298,-2.56803
760,69.7739,-0.161235,-2.56551
762.5,70.0277,-0.143832,-2.56793
765,70.2814,-0.138387,-2.56814
767.5,70.5345,-0.13358,-2.56683
770,70.7874,-0.126672,-2.56816
772.5,71.0419,-0.134592,-2.56749
775,71.2975,-0.126581,-2.5681
777.5,71.5514,-0.119428,-2.57009
780,71.806,-0.118245,-2.56793
782.5,72.0606,-0.110472,-2.56793
785,72.3153,-0.123258,-2.56925
787.5,72.5698,-0.108299,-2.56826
790,72.8244,-0.124229,-2.56858

File: High_Temp_Nylon_SCBA_Nosecup_STA_N2_10KData_251010_R2.csv
Temp./C,Time/min,DSC/(mW/mg),Mass loss/mg
50.0,0.0,0.745025,-0.00714149
52.5,0.328906,0.797127,-0.00581491
55,0.641985,0.842725,-0.00764923
57.5,0.943043,0.884476,-0.00830378
60,1.23796,0.922509,-0.0070307
62.5,1.52159,0.956605,-0.00751343
65,1.80317,0.984203,-0.00729858
67.5,2.07905,1.00334,-0.00813006
70,2.3497,1.01651,-0.00945087
72.5,2.61572,1.0359,-0.00801986
75,2.87708,1.06532,-0.00801105
77.5,3.13767,1.07402,-0.0106599
80,3.39619,1.09379,-0.00923
82.5,3.65124,1.1084,-0.00922201
85,3.9049,1.14007,-0.00922
87.5,4.1571,1.16207,-0.00922997
90,4.406,1.18281,-0.00922162
92.5,4.65443,1.21623,-0.01054
95,4.90132,1.22511,-0.00909234
97.5,5.14267,1.23378,-0.0100204
100,5.39014,1.23617,-0.00992406
102.5,5.63303,1.23876,-0.01032
105,5.87501,1.24295,-0.0103198
107.5,6.11741,1.23747,-0.0111792
110,6.35878,1.2401,-0.0116432
112.5,6.59961,1.24742,-0.01164
115,6.84037,1.26159,-0.00995597
117.5,7.08183,1.26763,-0.0106462
120,7.32145,1.28344,-0.0119693
122.5,7.56347,1.29017,-0.0116378
125,7.80222,1.303,-0.00999004
127.5,8.04104,1.31646,-0.0126648
130,8.28026,1.32783,-0.0126486
132.5,8.51878,1.33586,-0.0116388
135,8.75608,1.35027,-0.0113094
137.5,8.99555,1.36055,-0.0109774
140,9.23188,1.36808,-0.01263
142.5,9.46907,1.37918,-0.0113101
145,9.70624,1.3768,-0.0119601
147.5,9.94269,1.38157,-0.0136014
150,10.1789,1.40316,-0.014611
152.5,10.4156,1.41363,-0.0119711
155,10.651,1.42573,-0.0145951
157.5,10.886,1.42381,-0.01427
160,11.1221,1.43078,-0.0155926
162.5,11.3582,1.4305,-0.0123012
165,11.5932,1.44569,-0.01427
167.5,11.8291,1.45101,-0.0142356
170,12.0653,1.45733,-0.0133996
172.5,12.301,1.47858,-0.0123287
175,12.5363,1.48152,-0.01306
177.5,12.772,1.48978,-0.0143826
180,13.0075,1.49998,-0.01307
182.5,13.2433,1.50126,-0.0130474
185,13.4762,1.49342,-0.0143789
187.5,13.7136,1.49719,-0.01207
190,13.9469,1.51534,-0.01306
192.5,14.1827,1.51598,-0.01373
195,14.4174,1.53288,-0.0146016
197.5,14.6539,1.53756,-0.0130701
200,14.889,1.54161,-0.01405
202.5,15.1225,1.54812,-0.0140519
205,15.3579,1.5645,-0.01504
207.5,15.5935,1.56425,-0.01406
210,15.8276,1.56982,-0.01439
212.5,16.0623,1.58463,-0.01405
215,16.2986,1.59075,-0.01405
217.5,16.5322,1.60819,-0.01405
220,16.7694,1.61668,-0.0153729
222.5,17.0036,1.62564,-0.01406
225,17.2369,1.64055,-0.01537
227.5,17.4755,1.66365,-0.0153704
230,17.7097,1.68084,-0.0153736
232.5,17.9476,1.70613,-0.01537
235,18.1832,1.71478,-0.0144831
237.5,18.4199,1.73768,-0.01439
240,18.6554,1.77498,-0.01472
242.5,18.8922,1.81481,-0.01471
245,19.1279,1.90077,-0.01471
247.5,19.3678,2.07389,-0.0160295
250,19.608,2.41755,-0.0147023
252.5,19.8499,2.91248,-0.0147133
255,20.0908,3.29399,-0.0143799
257.5,20.332,3.66144,-0.01307
260,20.573,3.90969,-0.01439
262.5,20.7982,2.93841,-0.01472
265,21.0228,1.92673,-0.0140653
267.5,21.2573,1.68795,-0.0153699
270,21.4923,1.62077,-0.01471
272.5,21.7283,1.61756,-0.01471
275,21.9627,1.60677,-0.0153735
277.5,22.2001,1.60224,-0.01438
280,22.4384,1.61138,-0.0157
282.5,22.6754,1.6186,-0.0156978
285,22.9129,1.62495,-0.016361
287.5,23.1497,1.61884,-0.0157
290,23.3886,1.62965,-0.01636
292.5,23.6264,1.64097,-0.0152767
295,23.8642,1.65336,-0.0176799
297.5,24.1037,1.65855,-0.018
300,24.342,1.65331,-0.01735
302.5,24.5804,1.65054,-0.01932
305,24.8189,1.6555,-0.0180082
307.5,25.0571,1.65146,-0.01867
310,25.2955,1.65431,-0.0180102
312.5,25.5329,1.65854,-0.02064
315,25.772,1.65956,-0.01933
317.5,26.0111,1.65633,-0.02064
320,26.2491,1.67315,-0.02129
322.5,26.4901,1.68466,-0.0213007
325,26.7292,1.68771,-0.0239151
327.5,26.9676,1.6849,-0.0238856
330,27.2077,1.68374,-0.0239282
332.5,27.4476,1.69611,-0.0266078
335,27.6866,1.72108,-0.0270768
337.5,27.9272,1.73085,-0.0277078
340,28.1663,1.76686,-0.0286604
342.5,28.4072,1.78805,-0.0309879
345,28.6469,1.83012,-0.0338244
347.5,28.8871,1.8625,-0.03744
350,29.128,1.88373,-0.0413914
352.5,29.368,1.89408,-0.0440307
355,29.6092,1.90261,-0.0463302
357.5,29.8484,1.92523,-0.052915
360,30.0908,1.96512,-0.0557858
362.5,30.3324,1.99364,-0.061645
365,30.5741,2.05816,-0.0687147
367.5,30.8173,2.12077,-0.0770959
370,31.0597,2.22142,-0.085604
372.5,31.3015,2.31953,-0.0960054
375,31.5445,2.43982,-0.110679
377.5,31.7865,2.56034,-0.125332
380,32.0292,2.70483,-0.143934
382.5,32.2736,2.85171,-0.166729
385,32.5167,3.01884,-0.192232
387.5,32.7608,3.19317,-0.218222
390,33.0028,3.36604,-0.252946
392.5,33.249,3.53341,-0.288542
395,33.4935,3.68807,-0.331247
397.5,33.7381,3.84085,-0.381142
400,33.9822,3.99192,-0.433559
402.5,34.2247,4.09468,-0.488704
405,34.4704,4.17353,-0.549011
407.5,34.7147,4.21145,-0.614744
410,34.957,4.21116,-0.681365
412.5,35.198,4.20228,-0.75151
415,35.4417,4.1586,-0.825754
417.5,35.6844,4.11468,-0.900586
420,35.927,4.04605,-0.977086
422.5,36.1695,3.96038,-1.05511
425,36.4119,3.84059,-1.13501
427.5,36.6537,3.68279,-1.21778
430,36.8962,3.50087,-1.29663
432.5,37.1354,3.27388,-1.37317
435,37.3783,3.0163,-1.4477
437.5,37.6189,2.7155,-1.51656
440,37.8608,2.41039,-1.58068
442.5,38.1023,2.13714,-1.63735
445,38.3443,1.9006,-1.69038
447.5,38.5865,1.69814,-1.73833
450,38.8294,1.5762,-1.78238
452.5,39.0741,1.49459,-1.82548
455,39.318,1.44616,-1.86916
457.5,39.5613,1.41063,-1.91027
460,39.8086,1.40012,-1.95288
462.5,40.0542,1.38666,-1.9981
465,40.2988,1.36265,-2.04294
467.5,40.5446,1.32849,-2.09052
470,40.7901,1.31091,-2.13747
472.5,41.0336,1.28774,-2.18686
475,41.2791,1.26153,-2.23622
477.5,41.5247,1.21939,-2.28673
480,41.7696,1.15966,-2.33928
482.5,42.0144,1.07065,-2.39005
485,42.2565,0.94826,-2.43646
487.5,42.5034,0.802949,-2.47957
490,42.7486,0.654275,-2.51435
492.5,42.9924,0.499112,-2.53907
495,43.2381,0.369955,-2.55553
497.5,43.4841,0.276635,-2.56573
500,43.7304,0.237374,-2.57036
502.5,43.9772,0.203429,-2.57188
505,44.2237,0.207113,-2.57452
507.5,44.4716,0.216928,-2.57583
510,44.7193,0.218964,-2.57715
512.5,44.9635,0.225582,-2.57715
515,45.2128,0.22119,-2.57814
517.5,45.4591,0.222303,-2.57749
520,45.7061,0.217287,-2.5788
522.5,45.9526,0.203451,-2.57847
525,46.1999,0.189998,-2.57978
527.5,46.4488,0.175823,-2.58011
530,46.696,0.170086,-2.57846
532.5,46.9427,0.151636,-2.57978
535,47.1911,0.144373,-2.5778
537.5,47.4388,0.136696,-2.57913
540,47.6869,0.1357,-2.57979
542.5,47.9355,0.126592,-2.58078
545,48.183,0.122515,-2.57979
547.5,48.4301,0.105318,-2.57978
550,48.679,0.0965048,-2.57979
552.5,48.9264,0.0965188,-2.57946
555,49.1748,0.0918111,-2.57979
557.5,49.4224,0.0937623,-2.58044
560,49.6715,0.0859397,-2.57912
562.5,49.9217,0.0825618,-2.58077
565,50.1698,0.0777279,-2.57925
567.5,50.4188,0.0652814,-2.57945
570,50.6673,0.0570692,-2.58077
572.5,50.9161,0.0535612,-2.58015
575,51.1647,0.0459651,-2.58012
577.5,51.4133,0.0323797,-2.58012
580,51.6617,0.039413,-2.58078
582.5,51.9104,0.0325476,-2.57946
585,52.1602,0.0208447,-2.58209
587.5,52.4081,0.00831282,-2.58077
590,52.6581,0.00180207,-2.58077
592.5,52.907,-0.0128833,-2.58175
595,53.1577,-0.0150153,-2.58143
597.5,53.4067,-0.0222144,-2.5811
600,53.6574,-0.0249491,-2.58143
602.5,53.9089,-0.0227044,-2.58177
605,54.1586,-0.0324044,-2.58177
607.5,54.4088,-0.0427613,-2.58307
610,54.6606,-0.0421731,-2.58176
612.5,54.9105,-0.0551777,-2.58209
615,55.1606,-0.0529537,-2.58446
617.5,55.4122,-0.0669413,-2.5844
620,55.6635,-0.0884892,-2.58275
622.5,55.9133,-0.103614,-2.58506
625,56.1645,-0.116043,-2.58374
627.5,56.4153,-0.124243,-2.58505
630,56.6664,-0.132603,-2.58506
632.5,56.9167,-0.144452,-2.58538
635,57.1681,-0.158563,-2.5867
637.5,57.4201,-0.169113,-2.58506
640,57.6719,-0.182433,-2.58668
642.5,57.9232,-0.210662,-2.58507
645,58.1753,-0.217408,-2.58637
647.5,58.427,-0.228191,-2.58747
650,58.6774,-0.239485,-2.58638
652.5,58.9279,-0.252112,-2.5864
655,59.1794,-0.257064,-2.58879
657.5,59.4305,-0.26971,-2.58844
660,59.6803,-0.260256,-2.58747
662.5,59.93,-0.270224,-2.58878
665,60.1814,-0.282199,-2.58885
667.5,60.4331,-0.285298,-2.58978
670,60.6843,-0.297793,-2.58845
672.5,60.9347,-0.301743,-2.58878
675,61.1876,-0.308414,-2.5901
677.5,61.4402,-0.288666,-2.58978
680,61.6916,-0.294568,-2.59142
682.5,61.9427,-0.297015,-2.59104
685,62.1957,-0.298454,-2.59109
687.5,62.4487,-0.298439,-2.59143
690,62.7002,-0.299922,-2.59113
692.5,62.953,-0.298063,-2.59043
695,63.2066,-0.310593,-2.59142
697.5,63.4587,-0.30292,-2.59142
700,63.7121,-0.30302,-2.59011
702.5,63.9641,-0.318864,-2.59077
705,64.2177,-0.305954,-2.5914
707.5,64.4711,-0.304949,-2.59175
710,64.7225,-0.32546,-2.59175
712.5,64.9752,-0.325964,-2.59307
715,65.228,-0.313312,-2.59326
717.5,65.4807,-0.302184,-2.59439
720,65.7343,-0.293294,-2.5934
722.5,65.9864,-0.291413,-2.59372
725,66.2404,-0.298689,-2.59372
727.5,66.4941,-0.286996,-2.59373
730,66.7459,-0.279062,-2.59373
732.5,66.9999,-0.2836,-2.59511
735,67.2525,-0.27994,-2.59367
737.5,67.505,-0.29166,-2.5934
740,67.7573,-0.283419,-2.59347
742.5,68.0085,-0.280219,-2.59471
745,68.2636,-0.270329,-2.59439
747.5,68.5157,-0.287196,-2.59472
750,68.769,-0.286296,-2.59472
752.5,69.0223,-0.279727,-2.59613
755,69.2765,-0.276282,-2.59504
757.5,69.5295,-0.276004,-2.59537
760,69.7825,-0.283193,-2.5944
762.5,70.0355,-0.292358,-2.59471
765,70.2887,-0.288075,-2.5957
767.5,70.5412,-0.293169,-2.59625
770,70.7948,-0.271534,-2.59637
772.5,71.0481,-0.290847,-2.59604
775,71.3011,-0.280579,-2.59603
777.5,71.5544,-0.285961,-2.59735
780,71.8068,-0.280319,-2.59603
782.5,72.0623,-0.273248,-2.59568
785,72.3164,-0.264642,-2.59735
787.5,72.5706,-0.272593,-2.59735
790,72.824,-0.269278,-2.59637