Folder: fsri_materials_database/01_Data/High_Temp_Nylon_SCBA_Nosecup/STA/N2/30K_min

File: High_Temp_Nylon_SCBA_Nosecup_STA_N2_30KData_251013_R1.csv
Temp./C,Time/min,DSC/(mW/mg),Mass loss/mg
50.0,0.0,1.39395,-0.00222304
52.5,0.153105,1.65233,-0.000227216
55,0.29124,1.83101,-0.000200668
57.5,0.420597,2.00798,-0.0018407
60,0.542049,2.15929,-0.000508228
62.5,0.657112,2.28398,-0.00264067
65,0.769866,2.39125,-0.00307114
67.5,0.877615,2.49651,-0.00346211
70,0.982957,2.58464,-0.00076558
72.5,1.08623,2.67097,-0.00184174
75,1.18804,2.73028,-0.00274661
77.5,1.28809,2.77863,-0.00132965
80,1.38656,2.84928,-0.00130529
82.5,1.48387,2.92808,-0.00201647
85,1.5797,2.99674,-0.00454803
87.5,1.67425,3.08086,-0.00303245
90,1.76726,3.14385,-0.00298531
92.5,1.85985,3.23192,-0.00357715
95,1.95128,3.30661,-0.00461726
97.5,2.04138,3.37518,-0.00358555
100,2.13141,3.43171,-0.00330389
102.5,2.2204,3.47401,-0.00407473
105,2.30854,3.50654,-0.00483956
107.5,2.39661,3.52044,-0.00352416
110,2.48359,3.52891,-0.00380122
112.5,2.57036,3.53525,-0.00416483
115,2.65694,3.56373,-0.00487796
117.5,2.74299,3.58683,-0.00484005
120,2.8282,3.61648,-0.00469161
122.5,2.91351,3.65337,-0.00483997
125,2.99788,3.69794,-0.00519924
127.5,3.0821,3.74494,-0.00478496
130,3.16536,3.79134,-0.00486097
132.5,3.24849,3.83732,-0.00350618
135,3.33109,3.87865,-0.00353
137.5,3.41236,3.93133,-0.00485883
140,3.49416,3.96055,-0.0035186
142.5,3.57565,4.0098,-0.00484
145,3.65638,4.04584,-0.00352
147.5,3.73654,4.09907,-0.00417736
150,3.81686,4.13373,-0.00353
152.5,3.89556,4.18556,-0.00353
155,3.97553,4.22493,-0.00352895
157.5,4.05451,4.26501,-0.00352
160,4.13298,4.30204,-0.00352
162.5,4.212,4.34165,-0.00352
165,4.29047,4.36865,-0.00352
167.5,4.36851,4.40102,-0.0038849
170,4.4465,4.43823,-0.00564717
172.5,4.52457,4.46992,-0.00616
175,4.6017,4.49694,-0.00416812
177.5,4.67956,4.52068,-0.00352844
180,4.75651,4.55034,-0.00373545
182.5,4.83344,4.57817,-0.00496944
185,4.91006,4.60714,-0.00615965
187.5,4.98652,4.6308,-0.00484
190,5.06261,4.66738,-0.00484
192.5,5.13875,4.69838,-0.00451
195,5.21516,4.72365,-0.00451
197.5,5.29062,4.7473,-0.00516653
200,5.36622,4.78402,-0.00583
202.5,5.4417,4.81702,-0.00583176
205,5.51706,4.85761,-0.00450994
207.5,5.59225,4.88749,-0.00583
210,5.66796,4.92935,-0.00583
212.5,5.74299,4.9654,-0.00589714
215,5.81807,5.00058,-0.00451
217.5,5.89321,5.03566,-0.00451
220,5.96873,5.08559,-0.00449581
222.5,6.04343,5.12752,-0.00585492
225,6.11765,5.18402,-0.00451
227.5,6.19299,5.24514,-0.00451
230,6.26792,5.3119,-0.00582945
232.5,6.3426,5.35562,-0.00351939
235,6.41671,5.42858,-0.00351951
237.5,6.49229,5.52264,-0.00351995
240,6.56704,5.67814,-0.00483877
242.5,6.64134,5.87901,-0.0036785
245,6.71788,6.27512,-0.00352
247.5,6.79463,6.95624,-0.00432475
250,6.87299,8.04257,-0.00451
252.5,6.9508,9.14671,-0.00583524
255,7.02891,10.1682,-0.00583
257.5,7.10553,10.8613,-0.00450335
260,7.17568,9.61461,-0.00451998
262.5,7.24428,7.90756,-0.00517
265,7.31465,6.84511,-0.00516999
267.5,7.38621,6.19382,-0.00385004
270,7.45897,5.77933,-0.00451
272.5,7.532,5.52884,-0.00451
275,7.6051,5.38765,-0.00451
277.5,7.67878,5.28865,-0.00347852
280,7.75267,5.23128,-0.00351777
282.5,7.82628,5.20214,-0.00220022
285,7.9005,5.18083,-0.00352
287.5,7.97468,5.15764,-0.00352007
290,8.04852,5.15364,-0.00484001
292.5,8.12243,5.15258,-0.00484
295,8.1966,5.14288,-0.00418592
297.5,8.27065,5.13519,-0.00352
300,8.34496,5.13733,-0.00352
302.5,8.41953,5.13437,-0.00351996
305,8.49356,5.13134,-0.00220998
307.5,8.56789,5.1189,-0.00221
310,8.64248,5.12226,-0.00351236
312.5,8.7164,5.13025,-0.00353
315,8.79101,5.12773,-0.00353004
317.5,8.86535,5.12069,-0.00352
320,8.93996,5.12472,-0.00352
322.5,9.01442,5.12191,-0.00353447
325,9.08892,5.11799,-0.00484
327.5,9.16356,5.11772,-0.00484228
330,9.23769,5.1207,-0.00352
332.5,9.31287,5.13127,-0.00352
335,9.38765,5.12592,-0.0045729
337.5,9.46232,5.14825,-0.00483988
340,9.53778,5.15178,-0.00580848
342.5,9.61246,5.16841,-0.00806626
345,9.68736,5.17634,-0.00879
347.5,9.7623,5.20982,-0.0101
350,9.8368,5.22343,-0.00879
352.5,9.913,5.25026,-0.0101095
355,9.98824,5.27649,-0.0106429
357.5,10.0635,5.31221,-0.01011
360,10.1388,5.35105,-0.01142
362.5,10.2143,5.39215,-0.0127501
365,10.29,5.44928,-0.0141736
367.5,10.3654,5.49937,-0.0154843
370,10.441,5.56841,-0.0182312
372.5,10.5172,5.66106,-0.0203487
375,10.5931,5.73005,-0.0239484
377.5,10.6691,5.84421,-0.0261952
380,10.7452,5.94983,-0.0324372
382.5,10.8214,6.03432,-0.0365588
385,10.8976,6.16516,-0.0405592
387.5,10.9741,6.28092,-0.0460268
390,11.0504,6.43934,-0.0534714
392.5,11.1275,6.63811,-0.0606524
395,11.204,6.85145,-0.0705924
397.5,11.2813,7.09638,-0.0801565
400,11.3583,7.3746,-0.0915061
402.5,11.436,7.69944,-0.107817
405,11.5131,8.02888,-0.124224
407.5,11.5912,8.40521,-0.143946
410,11.6691,8.80502,-0.16696
412.5,11.7473,9.24396,-0.194376
415,11.8253,9.65884,-0.225654
417.5,11.9037,10.0824,-0.259928
420,11.9819,10.5107,-0.296374
422.5,12.0605,10.9296,-0.339022
425,12.1387,11.2519,-0.386915
427.5,12.2164,11.5507,-0.440554
430,12.2943,11.7423,-0.497394
432.5,12.3715,11.9048,-0.555335
435,12.4491,12.0097,-0.618929
437.5,12.527,12.0955,-0.688514
440,12.6045,12.1453,-0.759416
442.5,12.6815,12.0858,-0.831427
445,12.7585,11.9645,-0.900282
447.5,12.8354,11.8133,-0.964975
450,12.9118,11.6073,-1.0327
452.5,12.9886,11.3978,-1.11506
455,13.0647,11.1051,-1.20403
457.5,13.1409,10.7284,-1.2901
460,13.217,10.2169,-1.37993
462.5,13.2926,9.5738,-1.47055
465,13.3674,8.82098,-1.55207
467.5,13.4429,7.96926,-1.62649
470,13.5176,7.11558,-1.68949
472.5,13.5926,6.3216,-1.74518
475,13.6685,5.67227,-1.80101
477.5,13.7446,5.16353,-1.85115
480,13.8217,4.82307,-1.89865
482.5,13.899,4.61287,-1.94402
485,13.9765,4.46218,-1.98911
487.5,14.0546,4.33616,-2.03942
490,14.1329,4.24231,-2.09414
492.5,14.2107,4.1394,-2.14736
495,14.2892,4.0172,-2.18528
497.5,14.3674,3.87647,-2.21256
500,14.4448,3.66669,-2.27323
502.5,14.5234,3.43805,-2.35694
505,14.601,3.13286,-2.33699
507.5,14.679,2.7407,-2.44633
510,14.7566,2.35043,-2.43419
512.5,14.8336,1.95442,-2.45519
515,14.9115,1.62881,-2.37736
517.5,14.9888,1.3765,-2.28153
520,15.0672,1.21188,-2.25351
522.5,15.1466,1.12777,-2.55671
525,15.2256,1.03775,-2.57386
527.5,15.3054,1.02841,-2.57867
530,15.3849,1.02679,-2.58178
532.5,15.4645,1.03053,-2.5855
535,15.5442,1.01618,-2.58605
537.5,15.624,1.00901,-2.58735
540,15.7036,1.00461,-2.58869
542.5,15.7833,0.993421,-2.58873
545,15.8631,0.972969,-2.58968
547.5,15.943,0.965899,-2.58968
550,16.023,0.943767,-2.58968
552.5,16.1026,0.937876,-2.59001
555,16.1824,0.921266,-2.58869
557.5,16.2627,0.911945,-2.59001
560,16.3423,0.911213,-2.59001
562.5,16.4224,0.884196,-2.58902
565,16.5026,0.876114,-2.5877
567.5,16.5829,0.868182,-2.58737
570,16.6628,0.852823,-2.58737
572.5,16.7432,0.839229,-2.58605
575,16.8235,0.833858,-2.58692
577.5,16.904,0.814106,-2.5874
580,16.9844,0.800424,-2.58471
582.5,17.0648,0.790003,-2.58473
585,17.1453,0.779167,-2.58605
587.5,17.2261,0.763242,-2.58572
590,17.3066,0.762346,-2.58341
592.5,17.3875,0.746584,-2.58341
595,17.4678,0.731283,-2.58341
597.5,17.549,0.719684,-2.58473
600,17.6301,0.715858,-2.5821
602.5,17.7108,0.702022,-2.5821
605,17.7916,0.702713,-2.58142
607.5,17.8729,0.667127,-2.58078
610,17.9539,0.656435,-2.58078
612.5,18.0351,0.646917,-2.58171
615,18.1166,0.618933,-2.58209
617.5,18.198,0.613261,-2.58078
620,18.2791,0.606119,-2.58078
622.5,18.3606,0.587064,-2.5821
625,18.4421,0.580429,-2.58078
627.5,18.5234,0.567652,-2.57946
630,18.6052,0.559438,-2.57946
632.5,18.6868,0.551074,-2.58045
635,18.7677,0.546481,-2.58042
637.5,18.8502,0.540881,-2.58078
640,18.9318,0.533008,-2.58078
642.5,19.0138,0.530354,-2.58177
645,19.0955,0.520344,-2.5821
647.5,19.1774,0.509788,-2.58078
650,19.2593,0.498006,-2.58078
652.5,19.3414,0.486991,-2.5821
655,19.4233,0.487692,-2.57946
657.5,19.5053,0.472241,-2.58078
660,19.5877,0.462966,-2.58209
662.5,19.6697,0.451709,-2.58078
665,19.752,0.441893,-2.58078
667.5,19.8344,0.428466,-2.5821
670,19.9155,0.42731,-2.5821
672.5,19.9988,0.411945,-2.58342
675,20.0807,0.396205,-2.58276
677.5,20.1631,0.395034,-2.58408
680,20.2452,0.376877,-2.58408
682.5,20.3275,0.363636,-2.58408
685,20.4099,0.357019,-2.58342
687.5,20.4918,0.349507,-2.58348
690,20.5742,0.349187,-2.58374
692.5,20.6564,0.348007,-2.58341
695,20.7389,0.325083,-2.58473
697.5,20.8211,0.31783,-2.58474
700,20.9029,0.3069,-2.58506
702.5,20.9858,0.293681,-2.58506
705,21.0684,0.268917,-2.58606
707.5,21.151,0.264784,-2.58474
710,21.2336,0.269385,-2.58474
712.5,21.3162,0.248388,-2.58473
715,21.3991,0.249096,-2.5861
717.5,21.4817,0.263004,-2.58474
720,21.5644,0.254527,-2.58605
722.5,21.6472,0.254556,-2.58473
725,21.7301,0.253064,-2.58473
727.5,21.813,0.258262,-2.58539
730,21.8959,0.256524,-2.58539
732.5,21.9788,0.245263,-2.58472
735,22.0618,0.253764,-2.58407
737.5,22.1445,0.25002,-2.58524
740,22.2276,0.265553,-2.58605
742.5,22.3107,0.268884,-2.58605
745,22.3937,0.262684,-2.58474
747.5,22.4768,0.284032,-2.58606
750,22.5598,0.280266,-2.58474
752.5,22.6429,0.298175,-2.58605
755,22.726,0.295854,-2.58605
757.5,22.8091,0.310796,-2.58506
760,22.8924,0.329072,-2.58506
762.5,22.9758,0.339763,-2.58539
765,23.0585,0.350093,-2.58487
767.5,23.1418,0.359853,-2.58473
770,23.2248,0.358073,-2.58605
772.5,23.3081,0.35699,-2.58629
775,23.3908,0.356295,-2.58737
777.5,23.4741,0.359935,-2.58737
780,23.5564,0.344613,-2.58737
782.5,23.6401,0.358152,-2.58737
785,23.7233,0.354965,-2.5879
787.5,23.8058,0.336636,-2.58804
790,23.8891,0.3435,-2.58737

File: High_Temp_Nylon_SCBA_Nosecup_STA_N2_30KData_251014_R2.csv
Temp./C,Time/min,DSC/(mW/mg),Mass loss/mg
50.0,0.0,1.42652,0.02312
52.5,0.152948,1.67882,0.023026
55,0.290939,1.9007,0.0221333
57.5,0.418813,2.08159,0.0225479
60,0.540659,2.24184,0.0222412
62.5,0.656824,2.39363,0.0210107
65,0.768173,2.51371,0.0219868
67.5,0.876777,2.62941,0.0204651
70,0.981865,2.72618,0.0221925
72.5,1.08538,2.81835,0.020921
75,1.18746,2.9082,0.023219
77.5,1.28775,2.98182,0.0213647
80,1.38616,3.06001,0.02123
82.5,1.48303,3.13958,0.0214128
85,1.57908,3.22616,0.019637
87.5,1.67409,3.31389,0.0224498
90,1.76702,3.40209,0.0211887
92.5,1.86011,3.49583,0.0212178
95,1.95192,3.5743,0.0223904
97.5,2.04204,3.6577,0.0209218
100,2.13208,3.72619,0.0213729
102.5,2.22135,3.78308,0.0220601
105,2.30952,3.82224,0.0233919
107.5,2.39716,3.84725,0.0225426
110,2.48479,3.87014,0.0220741
112.5,2.57136,3.89867,0.022059
115,2.65814,3.93476,0.0233876
117.5,2.74475,3.97508,0.0234141
120,2.82939,4.01456,0.0233875
122.5,2.9149,4.07093,0.0220577
125,2.99944,4.12217,0.02338
127.5,3.08364,4.18001,0.0238765
130,3.16719,4.23553,0.0233207
132.5,3.25013,4.29612,0.0235096
135,3.33265,4.35127,0.0237105
137.5,3.41462,4.41915,0.0246994
140,3.4963,4.46676,0.0233797
142.5,3.57709,4.52264,0.0247
145,3.65818,4.58156,0.0247
147.5,3.73734,4.64195,0.0253349
150,3.81792,4.69256,0.0246996
152.5,3.89757,4.73874,0.0247
155,3.97692,4.79005,0.0247
157.5,4.05622,4.84774,0.0258905
160,4.13501,4.89798,0.0251223
162.5,4.21336,4.94756,0.02469
165,4.29173,4.99711,0.0233672
167.5,4.37033,5.03795,0.0252821
170,4.44798,5.07489,0.02568
172.5,4.52614,5.12167,0.02568
175,4.60348,5.16832,0.02568
177.5,4.681,5.21104,0.02568
180,4.75823,5.25012,0.027
182.5,4.83526,5.28438,0.0256898
185,4.91187,5.3228,0.02437
187.5,4.98833,5.36765,0.0243719
190,5.06493,5.40357,0.027
192.5,5.14079,5.4462,0.0263501
195,5.21665,5.47991,0.02503
197.5,5.29229,5.51424,0.02503
200,5.36808,5.56195,0.02503
202.5,5.44331,5.59872,0.02601
205,5.5189,5.63842,0.02601
207.5,5.59461,5.67842,0.02601
210,5.6698,5.7229,0.02601
212.5,5.74482,5.7738,0.02601
215,5.81985,5.82352,0.02601
217.5,5.89507,5.86494,0.0256122
220,5.96988,5.91364,0.02502
222.5,6.04538,5.97706,0.0261659
225,6.11969,6.03459,0.02634
227.5,6.19463,6.10083,0.0263383
230,6.26927,6.15805,0.02634
232.5,6.34409,6.21705,0.02634
235,6.41864,6.30293,0.0263491
237.5,6.49363,6.40784,0.02733
240,6.56851,6.54946,0.02733
242.5,6.64337,6.79023,0.0273293
245,6.71896,7.16666,0.02766
247.5,6.79575,7.86555,0.0289581
250,6.87359,8.95462,0.02898
252.5,6.95184,10.0552,0.0277488
255,7.02973,11.0561,0.02767
257.5,7.10611,11.6685,0.02767
260,7.17565,10.3286,0.02767
262.5,7.24462,8.67963,0.02865
265,7.3154,7.65673,0.02865
267.5,7.38691,7.03366,0.02865
270,7.45923,6.66275,0.02865
272.5,7.53151,6.43537,0.027658
275,7.60569,6.30832,0.02766
277.5,7.67859,6.22115,0.02766
280,7.7529,6.18135,0.0289833
282.5,7.82677,6.15785,0.02964
285,7.90065,6.12954,0.02964
287.5,7.97437,6.12707,0.0283203
290,8.04864,6.11003,0.02832
292.5,8.1227,6.09183,0.02832
295,8.19683,6.10249,0.02832
297.5,8.27105,6.09547,0.0283169
300,8.34507,6.0984,0.02964
302.5,8.4189,6.10585,0.0296399
305,8.49342,6.10627,0.02832
307.5,8.56758,6.11132,0.02832
310,8.6419,6.11708,0.02832
312.5,8.71627,6.10131,0.0283036
315,8.78975,6.1076,0.0296299
317.5,8.86497,6.0979,0.02832
320,8.93914,6.09179,0.02832
322.5,9.01366,6.08982,0.0280069
325,9.08801,6.09064,0.027
327.5,9.16286,6.08083,0.027
330,9.23719,6.08068,0.0271109
332.5,9.31185,6.07453,0.02601
335,9.38651,6.07403,0.024829
337.5,9.46128,6.08214,0.0256901
340,9.53611,6.0842,0.0243525
342.5,9.61117,6.08694,0.02437
345,9.68591,6.08412,0.0256896
347.5,9.76128,6.10313,0.02437
350,9.83599,6.10905,0.0223746
352.5,9.91137,6.13151,0.0228112
355,9.98654,6.15911,0.0223989
357.5,10.0616,6.18296,0.02108
360,10.1369,6.21988,0.0197481
362.5,10.2122,6.28026,0.0184384
365,10.2882,6.32478,0.0165515
367.5,10.3634,6.39522,0.0158296
370,10.4395,6.49589,0.0130571
372.5,10.5154,6.58457,0.0117347
375,10.5913,6.6888,0.00891425
377.5,10.6675,6.8018,0.00724457
380,10.7436,6.8807,0.00211497
382.5,10.8198,6.95862,-0.00269104
385,10.8956,7.0584,-0.00659979
387.5,10.9724,7.19493,-0.0134838
390,11.0488,7.35294,-0.0226157
392.5,11.1256,7.52131,-0.0286444
395,11.2023,7.75228,-0.0371346
397.5,11.2791,7.99741,-0.0484267
400,11.3564,8.2718,-0.0596287
402.5,11.4339,8.59419,-0.0739371
405,11.5114,8.94256,-0.0900031
407.5,11.5892,9.30862,-0.110848
410,11.6668,9.70194,-0.134484
412.5,11.7451,10.1268,-0.159794
415,11.8232,10.5441,-0.189649
417.5,11.9014,10.9794,-0.224663
420,11.9797,11.4152,-0.263342
422.5,12.058,11.8213,-0.307369
425,12.135,12.1314,-0.353599
427.5,12.2133,12.3518,-0.405234
430,12.2908,12.4462,-0.460617
432.5,12.3678,12.428,-0.517873
435,12.4445,12.3512,-0.577488
437.5,12.5212,12.2465,-0.636817
440,12.5983,12.1512,-0.700827
442.5,12.675,12.0744,-0.765099
445,12.7521,12.0328,-0.834254
447.5,12.8294,12.046,-0.910441
450,12.9068,12.0245,-0.985087
452.5,12.9839,11.9536,-1.06068
455,13.0608,11.8094,-1.14248
457.5,13.1376,11.5413,-1.22505
460,13.214,11.1588,-1.30214
462.5,13.2897,10.578,-1.37602
465,13.3653,9.83861,-1.44599
467.5,13.4402,8.99005,-1.51841
470,13.5148,8.09075,-1.58727
472.5,13.5899,7.24406,-1.65548
475,13.6652,6.49718,-1.70967
477.5,13.741,5.91891,-1.7619
480,13.8173,5.50196,-1.81173
482.5,13.8948,5.22784,-1.85767
485,13.9724,5.02976,-1.90227
487.5,14.0501,4.86352,-1.94909
490,14.1276,4.72336,-1.99593
492.5,14.2058,4.59095,-2.04006
495,14.2835,4.42719,-2.08713
497.5,14.3617,4.2421,-2.13548
500,14.4393,4.01142,-2.17816
502.5,14.5169,3.71908,-2.20061
505,14.5937,3.40204,-2.14656
507.5,14.6712,3.05137,-2.09052
510,14.7485,2.6399,-2.13421
512.5,14.8256,2.21417,-2.18965
515,14.9031,1.84091,-2.19132
517.5,14.9808,1.56613,-2.28061
520,15.0591,1.40046,-2.27754
522.5,15.1375,1.31728,-2.24795
525,15.2161,1.24782,-2.23916
527.5,15.295,1.25173,-2.25161
530,15.3736,1.2659,-2.28375
532.5,15.4527,1.27331,-2.27157
535,15.532,1.28309,-2.2771
537.5,15.6109,1.27174,-2.28742
540,15.6899,1.26708,-2.29814
542.5,15.7689,1.26712,-2.30545
545,15.8479,1.26932,-2.31393
547.5,15.9273,1.27604,-2.32286
550,16.0064,1.24423,-2.33115
552.5,16.0854,1.23249,-2.33987
555,16.165,1.22168,-2.35532
557.5,16.2444,1.22978,-2.35989
560,16.3239,1.22466,-2.36934
562.5,16.4031,1.22208,-2.37611
565,16.4831,1.20859,-2.38346
567.5,16.5627,1.20506,-2.38854
570,16.6421,1.19537,-2.3899
572.5,16.722,1.18231,-2.39217
575,16.802,1.16873,-2.39298
577.5,16.8816,1.14666,-2.40044
580,16.9619,1.14419,-2.42025
582.5,17.0419,1.12802,-2.41168
585,17.1222,1.11937,-2.4049
587.5,17.2019,1.11838,-2.40308
590,17.2827,1.10647,-2.40655
592.5,17.3631,1.11246,-2.41184
595,17.4437,1.09587,-2.42823
597.5,17.5243,1.08196,-2.43907
600,17.6052,1.06881,-2.41942
602.5,17.6861,1.04932,-2.41331
605,17.7671,1.0364,-2.41072
607.5,17.8483,1.02268,-2.41474
610,17.9291,1.00412,-2.42894
612.5,18.0103,1.00032,-2.43318
615,18.0912,0.982252,-2.4263
617.5,18.1725,0.965751,-2.40942
620,18.2535,0.955432,-2.41225
622.5,18.3349,0.956908,-2.41423
625,18.416,0.950356,-2.42753
627.5,18.4972,0.949466,-2.47218
630,18.5786,0.954351,-2.47614
632.5,18.6596,0.960118,-2.47406
635,18.7408,0.949132,-2.46637
637.5,18.8221,0.940131,-2.46205
640,18.9033,0.934297,-2.46079
642.5,18.9845,0.933104,-2.45335
645,19.0656,0.930913,-2.45029
647.5,19.1467,0.92094,-2.44126
650,19.2281,0.906237,-2.45806
652.5,19.3091,0.916266,-2.47693
655,19.3903,0.896704,-2.49094
657.5,19.4714,0.897121,-2.49579
660,19.5526,0.898187,-2.49174
662.5,19.6337,0.885014,-2.49306
665,19.7147,0.89951,-2.48922
667.5,19.7961,0.908166,-2.49217
670,19.8772,0.913804,-2.49298
672.5,19.9581,0.919983,-2.49505
675,20.0389,0.91134,-2.49416
677.5,20.1202,0.914036,-2.49727
680,20.201,0.909449,-2.49886
682.5,20.2823,0.894416,-2.49745
685,20.3634,0.877236,-2.49877
687.5,20.4445,0.861231,-2.49708
690,20.526,0.844495,-2.4942
692.5,20.6073,0.822954,-2.49295
695,20.6883,0.825349,-2.49031
697.5,20.7701,0.808095,-2.48899
700,20.8518,0.795652,-2.48899
702.5,20.9337,0.782776,-2.48768
705,21.0154,0.767848,-2.48505
707.5,21.0974,0.751615,-2.48505
710,21.1797,0.740044,-2.48373
712.5,21.2624,0.718205,-2.48105
715,21.345,0.714213,-2.47978
717.5,21.4279,0.699782,-2.47846
720,21.511,0.687232,-2.47846
722.5,21.5942,0.677741,-2.47846
725,21.6772,0.675082,-2.47582
727.5,21.7615,0.633906,-2.4745
730,21.8449,0.632901,-2.4722
732.5,21.9291,0.630549,-2.47184
735,22.0134,0.629693,-2.47187
737.5,22.0978,0.615731,-2.47122
740,22.1823,0.606336,-2.47056
742.5,22.2675,0.601879,-2.46792
745,22.3519,0.608327,-2.46792
747.5,22.4369,0.609371,-2.4655
750,22.522,0.631425,-2.46528
752.5,22.6071,0.633548,-2.46594
755,22.6924,0.622806,-2.46462
757.5,22.777,0.600468,-2.46461
760,22.862,0.568475,-2.46068
762.5,22.9469,0.528493,-2.46176
765,23.0311,0.483303,-2.46199
767.5,23.1161,0.426369,-2.45937
770,23.2004,0.376408,-2.45936
772.5,23.2849,0.308214,-2.45757
775,23.3692,0.238036,-2.45672
777.5,23.4536,0.174827,-2.45638
780,23.538,0.111141,-2.45672
782.5,23.6213,0.0389206,-2.4554
785,23.7061,-0.00310421,-2.4554
787.5,23.7901,-0.0693528,-2.45271
790,23.874,-0.106189,-2.45277