Folder: fsri_materials_database/01_Data/High_Temp_Nylon_SCBA_Nosecup/STA/N2/30K_min (part 2)

File: High_Temp_Nylon_SCBA_Nosecup_STA_N2_30KData_251016_R3.csv
Temp./C,Time/min,DSC/(mW/mg),Mass loss/mg
50.0,0.0,1.30167,-0.00397931
52.5,0.154876,1.53707,-0.00400571
55,0.295062,1.72516,-0.00559494
57.5,0.42429,1.88372,-0.00558182
60,0.54639,2.02022,-0.0071869
62.5,0.663469,2.15262,-0.00661132
65,0.775493,2.27054,-0.00153251
67.5,0.884972,2.35593,-0.00442263
70,0.990986,2.43238,-0.00371427
72.5,1.09555,2.51116,-0.00550349
75,1.19774,2.55773,-0.00514839
77.5,1.29779,2.62193,-0.00589903
80,1.39723,2.68696,-0.00656574
82.5,1.49479,2.75503,-0.0075803
85,1.59114,2.82878,-0.00689157
87.5,1.68626,2.90777,-0.00675665
90,1.77971,2.98592,-0.00790574
92.5,1.87248,3.05677,-0.0078324
95,1.96438,3.12771,-0.00876778
97.5,2.05467,3.18891,-0.00811286
100,2.14464,3.24156,-0.0111827
102.5,2.23424,3.28985,-0.00966537
105,2.32243,3.3025,-0.00690644
107.5,2.41057,3.31175,-0.00728626
110,2.4983,3.3206,-0.00812916
112.5,2.58511,3.33706,-0.009439
115,2.6718,3.34772,-0.00920274
117.5,2.75793,3.38525,-0.00881796
120,2.84355,3.40487,-0.00779993
122.5,2.92909,3.44422,-0.00680308
125,3.01352,3.488,-0.00680058
127.5,3.09788,3.51916,-0.00680989
130,3.18046,3.56974,-0.00812659
132.5,3.26452,3.60798,-0.00680975
135,3.34695,3.65807,-0.00945002
137.5,3.42898,3.69327,-0.00944
140,3.51095,3.73205,-0.00861549
142.5,3.59183,3.77014,-0.00812
145,3.67276,3.82247,-0.00811942
147.5,3.75314,3.86253,-0.00812864
150,3.833,3.90685,-0.0105591
152.5,3.91286,3.94295,-0.0094256
155,3.99214,3.96756,-0.00943876
157.5,4.07158,4.00576,-0.00944
160,4.15093,4.03123,-0.0107453
162.5,4.22929,4.07035,-0.00944
165,4.30766,4.09682,-0.0109808
167.5,4.38639,4.12488,-0.00833832
170,4.46428,4.15042,-0.00834
172.5,4.54212,4.17709,-0.00831181
175,4.62026,4.21107,-0.01098
177.5,4.69775,4.23865,-0.01098
180,4.77489,4.26887,-0.00966009
182.5,4.85214,4.2922,-0.01065
185,4.92875,4.33391,-0.00932902
187.5,5.00569,4.36018,-0.00814939
190,5.08204,4.38401,-0.0106494
192.5,5.15841,4.40625,-0.01065
195,5.23413,4.42973,-0.01208
197.5,5.31008,4.44738,-0.0113867
200,5.38617,4.48785,-0.00921999
202.5,5.46181,4.50539,-0.00922
205,5.53786,4.54002,-0.00922
207.5,5.61334,4.57223,-0.00973025
210,5.68893,4.59394,-0.0131809
212.5,5.76391,4.62646,-0.013185
215,5.83952,4.67068,-0.00899959
217.5,5.91468,4.7102,-0.00767877
220,5.99001,4.74682,-0.0106914
222.5,6.06527,4.79109,-0.00995881
225,6.14034,4.8526,-0.00955
227.5,6.2155,4.8922,-0.00823031
230,6.29051,4.9529,-0.00823
232.5,6.36523,5.01818,-0.00858946
235,6.44056,5.09397,-0.00955
237.5,6.5154,5.18783,-0.0108697
240,6.59051,5.32372,-0.0108705
242.5,6.66568,5.54781,-0.01153
245,6.74209,5.93347,-0.0102211
247.5,6.8189,6.63801,-0.01022
250,6.89744,7.72684,-0.01022
252.5,6.97556,8.83581,-0.01022
255,7.05417,9.86429,-0.00988929
257.5,7.13073,10.5447,-0.01021
260,7.20072,9.28928,-0.01021
262.5,7.26957,7.56074,-0.00922924
265,7.3407,6.47876,-0.01022
267.5,7.41272,5.82048,-0.00885686
270,7.48457,5.42746,-0.01032
272.5,7.55857,5.18302,-0.01164
275,7.63213,5.02956,-0.0126445
277.5,7.70567,4.93736,-0.0142855
280,7.77965,4.8959,-0.01428
282.5,7.85364,4.86487,-0.0116381
285,7.92827,4.84999,-0.0129528
287.5,8.00252,4.83233,-0.0129613
290,8.07679,4.82523,-0.01428
292.5,8.15124,4.82623,-0.012685
295,8.22553,4.82285,-0.0114199
297.5,8.30015,4.82165,-0.0114161
300,8.37464,4.83002,-0.01142
302.5,8.44921,4.84601,-0.01142
305,8.52369,4.83863,-0.0114207
307.5,8.59806,4.83854,-0.0101005
310,8.67311,4.84248,-0.0127875
312.5,8.74744,4.84614,-0.01274
315,8.82217,4.84392,-0.0114181
317.5,8.89665,4.82759,-0.01142
320,8.9715,4.82496,-0.0127301
322.5,9.04576,4.8273,-0.0140494
325,9.12058,4.84013,-0.01273
327.5,9.19537,4.83518,-0.01273
330,9.27046,4.83246,-0.0153703
332.5,9.34548,4.8422,-0.0140499
335,9.42061,4.8551,-0.01537
337.5,9.49594,4.85944,-0.01537
340,9.57124,4.86158,-0.0167105
342.5,9.64684,4.87847,-0.0180048
345,9.72249,4.89294,-0.0180012
347.5,9.79792,4.89758,-0.0180088
350,9.87333,4.91929,-0.01801
352.5,9.94889,4.94418,-0.0183714
355,10.0246,4.97649,-0.0193204
357.5,10.1004,5.01084,-0.020642
360,10.1764,5.05613,-0.0219599
362.5,10.2521,5.10917,-0.0239234
365,10.3284,5.18729,-0.0272957
367.5,10.4044,5.25101,-0.0286664
370,10.4806,5.33397,-0.0336943
372.5,10.5569,5.43472,-0.0352141
375,10.6331,5.54635,-0.0374352
377.5,10.7098,5.66677,-0.039206
380,10.7863,5.78156,-0.0437837
382.5,10.8628,5.89397,-0.0483881
385,10.9399,6.01778,-0.0536987
387.5,11.0167,6.16912,-0.0596979
390,11.0937,6.34206,-0.0671934
392.5,11.171,6.54681,-0.0762745
395,11.2478,6.77766,-0.087057
397.5,11.3259,7.03983,-0.0997274
400,11.4037,7.34903,-0.111652
402.5,11.4819,7.68198,-0.125047
405,11.5599,8.05972,-0.145176
407.5,11.6385,8.45653,-0.164064
410,11.717,8.87315,-0.189814
412.5,11.7955,9.30493,-0.216449
415,11.8746,9.75613,-0.249228
417.5,11.9535,10.2075,-0.28748
420,12.0326,10.6608,-0.329158
422.5,12.1109,11.0352,-0.375113
425,12.1898,11.3622,-0.426041
427.5,12.2684,11.6063,-0.480808
430,12.3465,11.7853,-0.538896
432.5,12.4248,11.8796,-0.601011
435,12.5027,11.9605,-0.669761
437.5,12.5804,11.9933,-0.734732
440,12.6585,11.9463,-0.804893
442.5,12.7359,11.8538,-0.876943
445,12.8134,11.703,-0.956003
447.5,12.8908,11.5319,-1.03799
450,12.9681,11.3322,-1.1182
452.5,13.0456,11.1201,-1.20148
455,13.1223,10.8293,-1.28899
457.5,13.1993,10.4712,-1.37607
460,13.276,9.95692,-1.45985
462.5,13.3517,9.3195,-1.54098
465,13.4274,8.54882,-1.6249
467.5,13.5028,7.70378,-1.70068
470,13.5783,6.84137,-1.76932
472.5,13.6539,6.07347,-1.82873
475,13.7303,5.44129,-1.88444
477.5,13.807,4.95124,-1.93434
480,13.8844,4.63212,-1.97882
482.5,13.9618,4.42066,-2.02649
485,14.0403,4.28267,-2.07436
487.5,14.1186,4.18665,-2.11908
490,14.1968,4.10188,-2.16665
492.5,14.2755,4.01592,-2.21435
495,14.3539,3.91426,-2.26171
497.5,14.4329,3.78952,-2.30983
500,14.5113,3.59572,-2.35671
502.5,14.5896,3.35693,-2.40747
505,14.6674,3.0473,-2.45326
507.5,14.7457,2.66935,-2.49622
510,14.8235,2.25546,-2.53305
512.5,14.9014,1.84457,-2.56203
515,14.9794,1.48414,-2.58277
517.5,15.0579,1.21592,-2.59675
520,15.1366,1.03678,-2.60376
522.5,15.216,0.934888,-2.60866
525,15.2951,0.832611,-2.61128
527.5,15.3745,0.837601,-2.61194
530,15.4544,0.84633,-2.61228
532.5,15.5345,0.847789,-2.6136
535,15.6144,0.855304,-2.6136
537.5,15.6945,0.859062,-2.61459
540,15.7746,0.85576,-2.61459
542.5,15.8548,0.865269,-2.61427
545,15.9347,0.858304,-2.61459
547.5,16.0151,0.857614,-2.6159
550,16.0952,0.849671,-2.61448
552.5,16.1746,0.844092,-2.6131
555,16.2557,0.851513,-2.6125
557.5,16.3362,0.844895,-2.61319
560,16.4164,0.831312,-2.61448
562.5,16.4972,0.820587,-2.61331
565,16.5776,0.79867,-2.61352
567.5,16.6576,0.790888,-2.6158
570,16.7386,0.770345,-2.61646
572.5,16.8194,0.755058,-2.61711
575,16.8999,0.747952,-2.61711
577.5,16.9806,0.735212,-2.6158
580,17.0612,0.720755,-2.61448
582.5,17.1423,0.709007,-2.6158
585,17.2229,0.695063,-2.61678
587.5,17.3037,0.677706,-2.61547
590,17.3845,0.670141,-2.61547
592.5,17.4655,0.658552,-2.61415
595,17.5463,0.644063,-2.61415
597.5,17.6273,0.62472,-2.61331
600,17.7084,0.618856,-2.61448
602.5,17.7893,0.612686,-2.6151
605,17.8704,0.604503,-2.61713
607.5,17.9519,0.597264,-2.61711
610,18.0328,0.585783,-2.618
612.5,18.1147,0.570606,-2.61974
615,18.1964,0.558277,-2.61735
617.5,18.2778,0.552066,-2.61666
620,18.3592,0.550717,-2.618
622.5,18.4406,0.531593,-2.61925
625,18.5223,0.528794,-2.61799
627.5,18.604,0.517516,-2.61666
630,18.6854,0.518509,-2.61601
632.5,18.7672,0.512737,-2.617
635,18.8492,0.508865,-2.61876
637.5,18.931,0.495621,-2.61744
640,19.0128,0.498765,-2.61777
642.5,19.0947,0.481407,-2.61805
645,19.1761,0.480076,-2.61777
647.5,19.2585,0.484553,-2.61744
650,19.34,0.469007,-2.61744
652.5,19.422,0.450301,-2.61744
655,19.5043,0.441728,-2.61744
657.5,19.5863,0.439262,-2.61711
660,19.6683,0.422467,-2.61661
662.5,19.7505,0.42178,-2.61711
665,19.8325,0.42068,-2.61798
667.5,19.9148,0.400611,-2.61975
670,19.9969,0.385835,-2.62202
672.5,20.0791,0.366733,-2.62172
675,20.1609,0.355708,-2.62171
677.5,20.2427,0.344214,-2.62173
680,20.3259,0.336196,-2.62148
682.5,20.4084,0.316558,-2.62298
685,20.4912,0.301883,-2.62418
687.5,20.5734,0.295415,-2.62299
690,20.656,0.288908,-2.62304
692.5,20.7385,0.278045,-2.62084
695,20.8212,0.265215,-2.62084
697.5,20.9037,0.250084,-2.62216
700,20.9864,0.241989,-2.62438
702.5,21.0693,0.221724,-2.62458
705,21.1521,0.2323,-2.62458
707.5,21.2348,0.227442,-2.62359
710,21.3176,0.205062,-2.62488
712.5,21.4003,0.195788,-2.62622
715,21.483,0.184959,-2.62623
717.5,21.566,0.171747,-2.62623
720,21.6488,0.162833,-2.62775
722.5,21.7318,0.154742,-2.62469
725,21.8147,0.152903,-2.62337
727.5,21.8974,0.146787,-2.62337
730,21.9803,0.14006,-2.62337
732.5,22.0633,0.119413,-2.62469
735,22.1464,0.120896,-2.62601
737.5,22.2293,0.10968,-2.62568
740,22.3126,0.0951645,-2.62711
742.5,22.3957,0.096376,-2.62433
745,22.4788,0.0902516,-2.62293
747.5,22.562,0.0962429,-2.62581
750,22.6452,0.113955,-2.6232
752.5,22.7284,0.120815,-2.62119
755,22.8115,0.132886,-2.62112
757.5,22.8949,0.139405,-2.62249
760,22.9778,0.152586,-2.62401
762.5,23.0612,0.150236,-2.62816
765,23.1441,0.152513,-2.63204
767.5,23.2281,0.166529,-2.63336
770,23.3114,0.163425,-2.63336
772.5,23.3949,0.162234,-2.63204
775,23.4778,0.159968,-2.63018
777.5,23.5613,0.154543,-2.62929
780,23.6449,0.15664,-2.62929
782.5,23.7282,0.148496,-2.63061
785,23.8117,0.149085,-2.63116
787.5,23.8953,0.146323,-2.62672
790,23.9802,0.130576,-2.62537