Folder: fsri_materials_database/01_Data/PC/FTIR/IS

File: PC_0.81_S_IS_230516_R1.dpt
7496.92,0.09193
7473.77,0.07314
7450.63,0.08065
7427.48,0.08243
7404.34,0.08512
7381.19,0.06854
7358.05,0.07587
7334.9,0.07261
7311.76,0.08761
7288.62,0.08776
7265.47,0.12045
7242.33,0.08715
7219.18,0.10539
7196.04,0.11338
7172.89,0.08411
7149.75,0.07587
7126.6,0.10291
7103.46,0.09662
7080.31,0.09257
7057.17,0.10241
7034.02,0.09828
7010.88,0.11471
6987.74,0.10085
6964.59,0.11225
6941.45,0.09536
6918.3,0.11863
6895.16,0.09245
6872.01,0.09978
6848.87,0.09013
6825.72,0.10595
6802.58,0.10478
6779.43,0.09891
6756.29,0.10726
6733.15,0.10672
6710,0.10676
6686.86,0.10158
6663.71,0.09795
6640.57,0.11854
6617.42,0.10153
6594.28,0.10744
6571.13,0.10977
6547.99,0.11546
6524.84,0.11209
6501.7,0.11330
6478.55,0.11093
6455.41,0.11211
6432.27,0.12342
6409.12,0.11938
6385.98,0.10519
6362.83,0.11179
6339.69,0.11304
6316.54,0.12015
6293.4,0.11249
6270.25,0.11756
6247.11,0.12181
6223.96,0.11920
6200.82,0.11705
6177.68,0.10471
6154.53,0.11246
6131.39,0.10036
6108.24,0.09868
6085.1,0.10410
6061.95,0.08194
6038.81,0.07599
6015.66,0.06197
5992.52,0.05355
5969.37,0.06856
5946.23,0.07523
5923.08,0.06811
5899.94,0.07591
5876.8,0.08481
5853.65,0.10173
5830.51,0.10017
5807.36,0.10266
5784.22,0.09859
5761.07,0.09419
5737.93,0.10541
5714.78,0.11007
5691.64,0.11328
5668.49,0.11051
5645.35,0.11357
5622.21,0.12085
5599.06,0.12309
5575.92,0.12150
5552.77,0.11962
5529.63,0.12349
5506.48,0.12179
5483.34,0.12024
5460.19,0.12426
5437.05,0.12643
5413.9,0.12208
5390.76,0.12634
5367.61,0.12819
5344.47,0.12813
5321.33,0.12954
5298.18,0.12612
5275.04,0.11974
5251.89,0.11940
5228.75,0.12743
5205.6,0.12898
5182.46,0.13322
5159.31,0.13117
5136.17,0.13232
5113.02,0.13475
5089.88,0.13621
5066.74,0.13211
5043.59,0.13614
5020.45,0.13630
4997.3,0.13502
4974.16,0.13274
4951.01,0.13489
4927.87,0.13290
4904.72,0.13069
4881.58,0.13001
4858.43,0.12624
4835.29,0.12437
4812.14,0.12568
4789,0.12571
4765.86,0.12227
4742.71,0.11336
4719.57,0.09520
4696.42,0.06814
4673.28,0.06731
4650.13,0.07182
4626.99,0.06614
4603.84,0.09376
4580.7,0.08643
4557.55,0.10085
4534.41,0.10874
4511.27,0.10848
4488.12,0.09771
4464.98,0.09361
4441.83,0.08109
4418.69,0.06673
4395.54,0.06496
4372.4,0.06385
4349.25,0.05964
4326.11,0.05891
4302.96,0.06064
4279.82,0.06297
4256.67,0.06686
4233.53,0.06811
4210.39,0.06499
4187.24,0.06358
4164.1,0.06476
4140.95,0.07046
4117.81,0.06864
4094.66,0.05920
4071.52,0.05824
4048.37,0.06213
4025.23,0.07175
4002.08,0.07275
3978.94,0.07203
3955.8,0.07638
3932.65,0.07515
3909.51,0.07183
3886.36,0.06913
3863.22,0.07875
3840.07,0.08887
3816.93,0.08914
3793.78,0.09596
3770.64,0.09763
3747.49,0.08375
3724.35,0.08802
3701.2,0.07073
3678.06,0.05974
3654.92,0.06180
3631.77,0.07458
3608.63,0.08232
3585.48,0.06196
3562.34,0.06000
3539.19,0.05745
3516.05,0.05990
3492.9,0.06776
3469.76,0.07485
3446.61,0.08280
3423.47,0.08995
3400.33,0.09052
3377.18,0.08229
3354.04,0.08229
3330.89,0.08096
3307.75,0.07282
3284.6,0.06783
3261.46,0.06578
3238.31,0.06369
3215.17,0.06235
3192.02,0.05942
3168.88,0.06039
3145.73,0.05948
3122.59,0.05877
3099.45,0.05828
3076.3,0.05848
3053.16,0.05855
3030.01,0.05884
3006.87,0.05837
2983.72,0.05757
2960.58,0.06119
2937.43,0.06005
2914.29,0.06118
2891.14,0.06023
2868,0.06058
2844.86,0.06094
2821.71,0.06236
2798.57,0.06358
2775.42,0.06160
2752.28,0.07097
2729.13,0.06866
2705.99,0.07213
2682.84,0.08423
2659.7,0.08398
2636.55,0.09389
2613.41,0.06996
2590.26,0.06892
2567.12,0.07736
2543.98,0.07606
2520.83,0.07247
2497.69,0.06583
2474.54,0.06179
2451.4,0.06190
2428.25,0.06180
2405.11,0.06116
2381.96,0.06264
2358.82,0.06804
2335.67,0.06533
2312.53,0.06558
2289.39,0.06340
2266.24,0.06113
2243.1,0.06127
2219.95,0.06164
2196.81,0.06126
2173.66,0.06252
2150.52,0.07242
2127.37,0.06520
2104.23,0.06157
2081.08,0.06066
2057.94,0.06049
2034.79,0.06058
2011.65,0.06048
1988.51,0.06031
1965.36,0.06042
1942.22,0.05981
1919.07,0.05870
1895.93,0.05858
1872.78,0.05819
1849.64,0.05657
1826.49,0.05351
1803.35,0.04706
1780.2,0.06032
1757.06,0.07882
1733.92,0.06701
1710.77,0.06411
1687.63,0.06151
1664.48,0.05984
1641.34,0.05901
1618.19,0.05831
1595.05,0.05869
1571.9,0.05725
1548.76,0.05424
1525.61,0.04883
1502.47,0.07268
1479.32,0.06276
1456.18,0.05964
1433.04,0.05679
1409.89,0.05456
1386.75,0.05348
1363.6,0.05215
1340.46,0.04793
1317.31,0.04099
1294.17,0.03554
1271.02,0.02317
1247.88,0.09273
1224.73,0.13657
1201.59,0.09088
1178.45,0.11031
1155.3,0.13644
1132.16,0.09809
1109.01,0.08712
1085.87,0.07738
1062.72,0.08414
1039.58,0.07629
1016.43,0.07887
993.288,0.08556
970.144,0.07921
946.999,0.07727
923.855,0.07505
900.71,0.07095
877.565,0.07445
854.421,0.06580
831.276,0.07770
808.132,0.08437
784.987,0.07501
761.843,0.07979
738.698,0.07653
715.553,0.07478
692.409,0.07635
669.264,0.07577
646.12,0.07323
622.975,0.06922
599.83,0.06969

File: PC_0.81_S_IS_230516_R2.dpt
7496.92,0.08899
7473.77,0.09650
7450.63,0.10637
7427.48,0.10378
7404.34,0.08475
7381.19,0.08514
7358.05,0.08004
7334.9,0.08238
7311.76,0.10533
7288.62,0.09592
7265.47,0.08021
7242.33,0.12139
7219.18,0.10011
7196.04,0.08694
7172.89,0.08433
7149.75,0.11235
7126.6,0.08200
7103.46,0.10161
7080.31,0.08784
7057.17,0.11592
7034.02,0.09090
7010.88,0.11561
6987.74,0.09639
6964.59,0.11233
6941.45,0.11747
6918.3,0.09765
6895.16,0.11682
6872.01,0.11462
6848.87,0.11873
6825.72,0.11589
6802.58,0.11033
6779.43,0.10677
6756.29,0.09805
6733.15,0.10205
6710,0.10458
6686.86,0.12423
6663.71,0.12283
6640.57,0.10933
6617.42,0.10457
6594.28,0.11180
6571.13,0.11877
6547.99,0.10374
6524.84,0.11990
6501.7,0.10948
6478.55,0.12001
6455.41,0.10933
6432.27,0.12614
6409.12,0.12837
6385.98,0.11453
6362.83,0.11206
6339.69,0.11519
6316.54,0.11670
6293.4,0.12260
6270.25,0.11413
6247.11,0.11791
6223.96,0.11439
6200.82,0.11546
6177.68,0.10291
6154.53,0.10394
6131.39,0.10409
6108.24,0.10651
6085.1,0.08843
6061.95,0.08464
6038.81,0.07399
6015.66,0.06274
5992.52,0.04864
5969.37,0.06554
5946.23,0.07033
5923.08,0.06876
5899.94,0.07742
5876.8,0.08515
5853.65,0.09999
5830.51,0.09547
5807.36,0.09632
5784.22,0.09716
5761.07,0.09864
5737.93,0.10234
5714.78,0.11511
5691.64,0.11469
5668.49,0.11428
5645.35,0.11460
5622.21,0.12033
5599.06,0.12214
5575.92,0.11689
5552.77,0.12281
5529.63,0.12344
5506.48,0.12141
5483.34,0.12355
5460.19,0.12177
5437.05,0.12149
5413.9,0.12184
5390.76,0.12560
5367.61,0.12668
5344.47,0.12439
5321.33,0.12743
5298.18,0.12447
5275.04,0.11750
5251.89,0.11938
5228.75,0.13012
5205.6,0.12935
5182.46,0.13103
5159.31,0.13263
5136.17,0.13434
5113.02,0.13476
5089.88,0.13594
5066.74,0.13348
5043.59,0.13467
5020.45,0.13249
4997.3,0.13399
4974.16,0.13419
4951.01,0.13562
4927.87,0.13213
4904.72,0.12970
4881.58,0.12949
4858.43,0.12777
4835.29,0.12352
4812.14,0.12830
4789,0.12566
4765.86,0.12174
4742.71,0.11276
4719.57,0.09391
4696.42,0.06958
4673.28,0.06544
4650.13,0.07223
4626.99,0.06728
4603.84,0.09700
4580.7,0.08692
4557.55,0.10037
4534.41,0.10825
4511.27,0.10945
4488.12,0.09899
4464.98,0.09418
4441.83,0.08198
4418.69,0.06524
4395.54,0.06452
4372.4,0.06192
4349.25,0.06171
4326.11,0.05823
4302.96,0.06054
4279.82,0.06311
4256.67,0.06796
4233.53,0.06731
4210.39,0.06474
4187.24,0.06423
4164.1,0.06449
4140.95,0.06959
4117.81,0.06944
4094.66,0.05795
4071.52,0.05753
4048.37,0.06253
4025.23,0.07171
4002.08,0.07138
3978.94,0.07159
3955.8,0.07556
3932.65,0.07451
3909.51,0.07120
3886.36,0.06852
3863.22,0.07936
3840.07,0.08874
3816.93,0.08968
3793.78,0.09441
3770.64,0.09746
3747.49,0.08416
3724.35,0.08869
3701.2,0.07038
3678.06,0.05930
3654.92,0.06360
3631.77,0.07485
3608.63,0.08240
3585.48,0.06272
3562.34,0.06085
3539.19,0.05880
3516.05,0.05842
3492.9,0.06888
3469.76,0.07424
3446.61,0.08324
3423.47,0.09042
3400.33,0.09047
3377.18,0.08262
3354.04,0.08273
3330.89,0.08159
3307.75,0.07233
3284.6,0.06791
3261.46,0.06645
3238.31,0.06401
3215.17,0.06188
3192.02,0.05986
3168.88,0.06017
3145.73,0.05935
3122.59,0.05882
3099.45,0.05902
3076.3,0.05892
3053.16,0.05891
3030.01,0.05888
3006.87,0.05846
2983.72,0.05703
2960.58,0.06105
2937.43,0.05994
2914.29,0.06066
2891.14,0.06009
2868,0.06073
2844.86,0.06097
2821.71,0.06295
2798.57,0.06280
2775.42,0.06184
2752.28,0.07121
2729.13,0.06858
2705.99,0.07181
2682.84,0.08390
2659.7,0.08396
2636.55,0.09406
2613.41,0.07026
2590.26,0.06858
2567.12,0.07772
2543.98,0.07550
2520.83,0.07181
2497.69,0.06559
2474.54,0.06170
2451.4,0.06174
2428.25,0.06191
2405.11,0.06155
2381.96,0.06249
2358.82,0.06728
2335.67,0.06596
2312.53,0.06478
2289.39,0.06330
2266.24,0.06124
2243.1,0.06074
2219.95,0.06110
2196.81,0.06114
2173.66,0.06231
2150.52,0.07226
2127.37,0.06513
2104.23,0.06138
2081.08,0.06056
2057.94,0.06079
2034.79,0.06016
2011.65,0.06013
1988.51,0.06037
1965.36,0.06025
1942.22,0.05976
1919.07,0.05826
1895.93,0.05839
1872.78,0.05764
1849.64,0.05621
1826.49,0.05349
1803.35,0.04712
1780.2,0.06005
1757.06,0.07848
1733.92,0.06745
1710.77,0.06392
1687.63,0.06135
1664.48,0.06001
1641.34,0.05914
1618.19,0.05782
1595.05,0.05839
1571.9,0.05746
1548.76,0.05407
1525.61,0.04908
1502.47,0.07205
1479.32,0.06225
1456.18,0.05926
1433.04,0.05678
1409.89,0.05449
1386.75,0.05356
1363.6,0.05226
1340.46,0.04756
1317.31,0.04047
1294.17,0.03492
1271.02,0.02306
1247.88,0.09306
1224.73,0.13584
1201.59,0.09036
1178.45,0.10996
1155.3,0.13574
1132.16,0.09809
1109.01,0.08649
1085.87,0.07702
1062.72,0.08447
1039.58,0.07623
1016.43,0.07880
993.288,0.08555
970.144,0.07999
946.999,0.07687
923.855,0.07476
900.71,0.07042
877.565,0.07462
854.421,0.06569
831.276,0.07757
808.132,0.08525
784.987,0.07519
761.843,0.08039
738.698,0.07685
715.553,0.07475
692.409,0.07682
669.264,0.07395
646.12,0.07255
622.975,0.07145
599.83,0.06860

File: PC_0.81_S_IS_230516_R3.dpt
7496.92,0.11175
7473.77,0.09195
7450.63,0.07299
7427.48,0.09208
7404.34,0.10906
7381.19,0.06514
7358.05,0.08008
7334.9,0.10460
7311.76,0.09092
7288.62,0.08243
7265.47,0.09886
7242.33,0.07841
7219.18,0.06706
7196.04,0.10192
7172.89,0.07450
7149.75,0.09877
7126.6,0.09986
7103.46,0.12311
7080.31,0.10466
7057.17,0.11157
7034.02,0.09366
7010.88,0.10485
6987.74,0.09661
6964.59,0.09748
6941.45,0.11675
6918.3,0.08650
6895.16,0.11276
6872.01,0.09639
6848.87,0.10009
6825.72,0.10069
6802.58,0.09737
6779.43,0.10431
6756.29,0.10370
6733.15,0.10805
6710,0.11531
6686.86,0.11635
6663.71,0.10377
6640.57,0.11323
6617.42,0.10415
6594.28,0.11940
6571.13,0.10451
6547.99,0.11545
6524.84,0.10386
6501.7,0.11318
6478.55,0.10968
6455.41,0.11503
6432.27,0.11368
6409.12,0.12383
6385.98,0.11414
6362.83,0.11162
6339.69,0.11996
6316.54,0.11473
6293.4,0.11267
6270.25,0.10917
6247.11,0.12107
6223.96,0.11415
6200.82,0.11475
6177.68,0.11081
6154.53,0.11101
6131.39,0.11453
6108.24,0.09715
6085.1,0.08850
6061.95,0.08544
6038.81,0.08260
6015.66,0.05455
5992.52,0.05539
5969.37,0.07218
5946.23,0.07432
5923.08,0.07275
5899.94,0.07427
5876.8,0.08328
5853.65,0.09563
5830.51,0.10366
5807.36,0.10138
5784.22,0.10140
5761.07,0.09543
5737.93,0.10733
5714.78,0.11177
5691.64,0.11365
5668.49,0.11097
5645.35,0.11371
5622.21,0.12077
5599.06,0.12699
5575.92,0.12096
5552.77,0.11883
5529.63,0.12223
5506.48,0.12077
5483.34,0.12063
5460.19,0.12406
5437.05,0.12723
5413.9,0.12678
5390.76,0.12553
5367.61,0.12679
5344.47,0.12594
5321.33,0.12688
5298.18,0.12447
5275.04,0.11805
5251.89,0.12329
5228.75,0.12548
5205.6,0.13275
5182.46,0.12966
5159.31,0.13221
5136.17,0.13409
5113.02,0.13498
5089.88,0.13403
5066.74,0.13510
5043.59,0.13652
5020.45,0.13490
4997.3,0.13326
4974.16,0.13403
4951.01,0.13304
4927.87,0.13465
4904.72,0.13116
4881.58,0.12701
4858.43,0.12641
4835.29,0.12329
4812.14,0.12552
4789,0.12706
4765.86,0.12030
4742.71,0.11304
4719.57,0.09433
4696.42,0.06871
4673.28,0.06736
4650.13,0.07165
4626.99,0.06688
4603.84,0.09509
4580.7,0.08560
4557.55,0.10027
4534.41,0.10816
4511.27,0.10821
4488.12,0.09947
4464.98,0.09510
4441.83,0.08167
4418.69,0.06513
4395.54,0.06471
4372.4,0.06263
4349.25,0.06005
4326.11,0.05853
4302.96,0.06144
4279.82,0.06279
4256.67,0.06678
4233.53,0.06707
4210.39,0.06540
4187.24,0.06193
4164.1,0.06312
4140.95,0.07056
4117.81,0.06760
4094.66,0.05873
4071.52,0.05755
4048.37,0.06224
4025.23,0.07103
4002.08,0.07171
3978.94,0.07164
3955.8,0.07593
3932.65,0.07432
3909.51,0.07217
3886.36,0.06897
3863.22,0.07800
3840.07,0.08857
3816.93,0.08941
3793.78,0.09473
3770.64,0.09806
3747.49,0.08457
3724.35,0.08823
3701.2,0.07165
3678.06,0.05933
3654.92,0.06294
3631.77,0.07444
3608.63,0.08239
3585.48,0.06264
3562.34,0.06049
3539.19,0.05832
3516.05,0.05930
3492.9,0.06832
3469.76,0.07554
3446.61,0.08302
3423.47,0.09125
3400.33,0.09023
3377.18,0.08215
3354.04,0.08377
3330.89,0.08143
3307.75,0.07280
3284.6,0.06771
3261.46,0.06479
3238.31,0.06358
3215.17,0.06179
3192.02,0.05897
3168.88,0.05953
3145.73,0.06004
3122.59,0.05846
3099.45,0.05821
3076.3,0.05859
3053.16,0.05884
3030.01,0.05919
3006.87,0.05809
2983.72,0.05738
2960.58,0.06092
2937.43,0.06031
2914.29,0.06048
2891.14,0.06061
2868,0.06029
2844.86,0.06062
2821.71,0.06214
2798.57,0.06370
2775.42,0.06162
2752.28,0.07125
2729.13,0.06822
2705.99,0.07255
2682.84,0.08383
2659.7,0.08416
2636.55,0.09389
2613.41,0.07006
2590.26,0.06896
2567.12,0.07762
2543.98,0.07611
2520.83,0.07154
2497.69,0.06522
2474.54,0.06201
2451.4,0.06190
2428.25,0.06191
2405.11,0.06152
2381.96,0.06250
2358.82,0.06780
2335.67,0.06608
2312.53,0.06531
2289.39,0.06351
2266.24,0.06127
2243.1,0.06138
2219.95,0.06119
2196.81,0.06109
2173.66,0.06254
2150.52,0.07239
2127.37,0.06528
2104.23,0.06103
2081.08,0.06052
2057.94,0.06017
2034.79,0.06034
2011.65,0.06006
1988.51,0.06021
1965.36,0.06012
1942.22,0.05953
1919.07,0.05876
1895.93,0.05808
1872.78,0.05807
1849.64,0.05631
1826.49,0.05369
1803.35,0.04689
1780.2,0.06037
1757.06,0.07852
1733.92,0.06760
1710.77,0.06349
1687.63,0.06128
1664.48,0.05973
1641.34,0.05913
1618.19,0.05788
1595.05,0.05840
1571.9,0.05740
1548.76,0.05404
1525.61,0.04934
1502.47,0.07230
1479.32,0.06251
1456.18,0.05999
1433.04,0.05687
1409.89,0.05459
1386.75,0.05354
1363.6,0.05244
1340.46,0.04771
1317.31,0.04054
1294.17,0.03510
1271.02,0.02299
1247.88,0.09258
1224.73,0.13615
1201.59,0.09044
1178.45,0.10949
1155.3,0.13600
1132.16,0.09803
1109.01,0.08686
1085.87,0.07719
1062.72,0.08448
1039.58,0.07616
1016.43,0.07834
993.288,0.08535
970.144,0.07942
946.999,0.07688
923.855,0.07448
900.71,0.07054
877.565,0.07495
854.421,0.06582
831.276,0.07815
808.132,0.08451
784.987,0.07506
761.843,0.07922
738.698,0.07743
715.553,0.07496
692.409,0.07584
669.264,0.07489
646.12,0.07239
622.975,0.07039
599.83,0.06692

File: PC_0.81_T_IS_230516_R1.dpt
7496.92,0.04312
7473.77,0.04878
7450.63,0.04954
7427.48,0.06436
7404.34,0.06302
7381.19,0.05688
7358.05,0.06909
7334.9,0.05235
7311.76,0.03403
7288.62,0.05813
7265.47,0.06151
7242.33,0.02701
7219.18,0.03039
7196.04,0.02448
7172.89,0.06151
7149.75,0.06322
7126.6,0.05906
7103.46,0.05011
7080.31,0.04886
7057.17,0.06145
7034.02,0.03191
7010.88,0.03903
6987.74,0.02562
6964.59,0.05228
6941.45,0.05117
6918.3,0.02763
6895.16,0.04461
6872.01,0.04579
6848.87,0.04224
6825.72,0.05476
6802.58,0.03511
6779.43,0.04425
6756.29,0.03757
6733.15,0.04014
6710,0.03052
6686.86,0.03678
6663.71,0.03965
6640.57,0.02883
6617.42,0.03773
6594.28,0.03815
6571.13,0.02813
6547.99,0.03548
6524.84,0.04676
6501.7,0.04183
6478.55,0.03716
6455.41,0.03219
6432.27,0.02530
6409.12,0.03388
6385.98,0.04220
6362.83,0.02964
6339.69,0.03082
6316.54,0.04367
6293.4,0.02914
6270.25,0.04331
6247.11,0.03248
6223.96,0.02632
6200.82,0.03205
6177.68,0.03584
6154.53,0.04023
6131.39,0.03112
6108.24,0.03297
6085.1,0.03155
6061.95,0.03312
6038.81,0.03109
6015.66,0.03407
5992.52,0.03318
5969.37,0.03197
5946.23,0.03530
5923.08,0.02842
5899.94,0.02984
5876.8,0.02485
5853.65,0.02768
5830.51,0.02533
5807.36,0.03098
5784.22,0.02620
5761.07,0.02555
5737.93,0.02946
5714.78,0.02205
5691.64,0.03200
5668.49,0.02617
5645.35,0.02406
5622.21,0.02809
5599.06,0.02563
5575.92,0.02762
5552.77,0.02811
5529.63,0.02475
5506.48,0.02806
5483.34,0.02814
5460.19,0.02644
5437.05,0.02652
5413.9,0.02903
5390.76,0.02559
5367.61,0.02445
5344.47,0.02399
5321.33,0.02875
5298.18,0.02709
5275.04,0.02589
5251.89,0.02508
5228.75,0.02843
5205.6,0.02585
5182.46,0.02419
5159.31,0.02453
5136.17,0.02551
5113.02,0.02689
5089.88,0.02533
5066.74,0.02589
5043.59,0.02396
5020.45,0.02752
4997.3,0.02490
4974.16,0.02377
4951.01,0.02406
4927.87,0.02371
4904.72,0.02460
4881.58,0.02534
4858.43,0.02572
4835.29,0.02490
4812.14,0.02547
4789,0.02479
4765.86,0.02456
4742.71,0.02494
4719.57,0.02490
4696.42,0.02457
4673.28,0.02382
4650.13,0.02362
4626.99,0.02585
4603.84,0.02224
4580.7,0.02393
4557.55,0.02219
4534.41,0.02461
4511.27,0.02371
4488.12,0.02461
4464.98,0.02274
4441.83,0.02462
4418.69,0.02255
4395.54,0.02358
4372.4,0.02386
4349.25,0.02413
4326.11,0.02268
4302.96,0.02494
4279.82,0.02445
4256.67,0.02317
4233.53,0.02377
4210.39,0.02312
4187.24,0.02394
4164.1,0.02301
4140.95,0.02381
4117.81,0.02332
4094.66,0.02423
4071.52,0.02291
4048.37,0.02274
4025.23,0.02389
4002.08,0.02365
3978.94,0.02332
3955.8,0.02369
3932.65,0.02354
3909.51,0.02413
3886.36,0.02314
3863.22,0.02422
3840.07,0.02470
3816.93,0.02398
3793.78,0.02389
3770.64,0.02362
3747.49,0.02431
3724.35,0.02393
3701.2,0.02372
3678.06,0.02366
3654.92,0.02245
3631.77,0.02257
3608.63,0.02285
3585.48,0.02258
3562.34,0.02195
3539.19,0.02160
3516.05,0.02192
3492.9,0.02184
3469.76,0.02212
3446.61,0.02168
3423.47,0.02205
3400.33,0.02214
3377.18,0.02190
3354.04,0.02113
3330.89,0.02104
3307.75,0.02156
3284.6,0.02141
3261.46,0.02152
3238.31,0.02176
3215.17,0.02236
3192.02,0.02262
3168.88,0.02130
3145.73,0.02202
3122.59,0.02227
3099.45,0.02217
3076.3,0.02149
3053.16,0.02183
3030.01,0.02194
3006.87,0.02178
2983.72,0.02126
2960.58,0.02081
2937.43,0.02122
2914.29,0.02140
2891.14,0.02185
2868,0.02195
2844.86,0.02144
2821.71,0.02281
2798.57,0.02246
2775.42,0.02185
2752.28,0.02290
2729.13,0.02283
2705.99,0.02324
2682.84,0.02277
2659.7,0.02286
2636.55,0.02243
2613.41,0.02224
2590.26,0.02262
2567.12,0.02277
2543.98,0.02279
2520.83,0.02293
2497.69,0.02336
2474.54,0.02286
2451.4,0.02300
2428.25,0.02258
2405.11,0.02252
2381.96,0.02287
2358.82,0.02368
2335.67,0.02372
2312.53,0.02344
2289.39,0.02304
2266.24,0.02306
2243.1,0.02301
2219.95,0.02254
2196.81,0.02250
2173.66,0.02258
2150.52,0.02244
2127.37,0.02257
2104.23,0.02292
2081.08,0.02242
2057.94,0.02274
2034.79,0.02213
2011.65,0.02290
1988.51,0.02297
1965.36,0.02221
1942.22,0.02259
1919.07,0.02298
1895.93,0.02249
1872.78,0.02240
1849.64,0.02222
1826.49,0.02164
1803.35,0.02178
1780.2,0.02064
1757.06,0.01972
1733.92,0.02067
1710.77,0.02239
1687.63,0.02111
1664.48,0.02035
1641.34,0.02033
1618.19,0.02113
1595.05,0.02071
1571.9,0.02025
1548.76,0.02013
1525.61,0.02078
1502.47,0.02079
1479.32,0.02069
1456.18,0.02029
1433.04,0.02031
1409.89,0.01961
1386.75,0.01948
1363.6,0.01963
1340.46,0.01933
1317.31,0.01876
1294.17,0.01967
1271.02,0.02060
1247.88,0.02136
1224.73,0.02095
1201.59,0.02027
1178.45,0.01938
1155.3,0.01892
1132.16,0.01900
1109.01,0.01973
1085.87,0.01985
1062.72,0.02189
1039.58,0.02078
1016.43,0.02154
993.288,0.02227
970.144,0.02253
946.999,0.02195
923.855,0.02114
900.71,0.02120
877.565,0.02140
854.421,0.02099
831.276,0.02078
808.132,0.01993
784.987,0.02028
761.843,0.02001
738.698,0.01862
715.553,0.02019
692.409,0.01940
669.264,0.01940
646.12,0.01868
622.975,0.01828
599.83,0.01710

File: PC_0.81_T_IS_230516_R3.dpt
7496.92,0.07425
7473.77,0.06830
7450.63,0.06236
7427.48,0.02911
7404.34,0.03964
7381.19,0.02568
7358.05,0.06976
7334.9,0.04179
7311.76,0.03717
7288.62,0.02848
7265.47,0.07371
7242.33,0.01876
7219.18,0.03144
7196.04,0.07718
7172.89,0.03922
7149.75,0.03699
7126.6,0.04232
7103.46,0.04713
7080.31,0.05319
7057.17,0.04977
7034.02,0.02631
7010.88,0.03569
6987.74,0.06333
6964.59,0.03846
6941.45,0.04086
6918.3,0.03455
6895.16,0.02908
6872.01,0.03958
6848.87,0.03498
6825.72,0.03790
6802.58,0.03349
6779.43,0.03608
6756.29,0.04264
6733.15,0.03293
6710,0.03459
6686.86,0.04388
6663.71,0.02262
6640.57,0.03525
6617.42,0.05868
6594.28,0.02560
6571.13,0.03964
6547.99,0.03196
6524.84,0.02749
6501.7,0.03568
6478.55,0.02729
6455.41,0.03513
6432.27,0.04103
6409.12,0.03930
6385.98,0.03865
6362.83,0.03994
6339.69,0.03478
6316.54,0.02774
6293.4,0.03168
6270.25,0.02976
6247.11,0.03469
6223.96,0.02832
6200.82,0.03507
6177.68,0.03734
6154.53,0.03119
6131.39,0.03279
6108.24,0.02902
6085.1,0.02782
6061.95,0.03053
6038.81,0.03135
6015.66,0.03505
5992.52,0.02415
5969.37,0.03123
5946.23,0.03513
5923.08,0.02574
5899.94,0.02563
5876.8,0.03042
5853.65,0.02832
5830.51,0.02701
5807.36,0.03202
5784.22,0.03187
5761.07,0.03085
5737.93,0.02837
5714.78,0.02470
5691.64,0.02676
5668.49,0.02953
5645.35,0.02469
5622.21,0.02962
5599.06,0.02937
5575.92,0.02927
5552.77,0.02869
5529.63,0.02762
5506.48,0.02425
5483.34,0.02742
5460.19,0.02672
5437.05,0.02874
5413.9,0.02756
5390.76,0.02592
5367.61,0.02701
5344.47,0.02808
5321.33,0.02470
5298.18,0.02598
5275.04,0.02449
5251.89,0.02711
5228.75,0.02703
5205.6,0.02409
5182.46,0.02695
5159.31,0.02625
5136.17,0.02626
5113.02,0.02433
5089.88,0.02727
5066.74,0.02453
5043.59,0.02204
5020.45,0.02641
4997.3,0.02593
4974.16,0.02673
4951.01,0.02390
4927.87,0.02501
4904.72,0.02393
4881.58,0.02514
4858.43,0.02595
4835.29,0.02502
4812.14,0.02380
4789,0.02289
4765.86,0.02372
4742.71,0.02633
4719.57,0.02457
4696.42,0.02462
4673.28,0.02506
4650.13,0.02543
4626.99,0.02529
4603.84,0.02460
4580.7,0.02396
4557.55,0.02371
4534.41,0.02412
4511.27,0.02413
4488.12,0.02455
4464.98,0.02411
4441.83,0.02555
4418.69,0.02609
4395.54,0.02427
4372.4,0.02380
4349.25,0.02464
4326.11,0.02449
4302.96,0.02370
4279.82,0.02497
4256.67,0.02444
4233.53,0.02402
4210.39,0.02481
4187.24,0.02435
4164.1,0.02433
4140.95,0.02353
4117.81,0.02378
4094.66,0.02375
4071.52,0.02460
4048.37,0.02413
4025.23,0.02402
4002.08,0.02363
3978.94,0.02306
3955.8,0.02393
3932.65,0.02447
3909.51,0.02454
3886.36,0.02447
3863.22,0.02523
3840.07,0.02481
3816.93,0.02391
3793.78,0.02364
3770.64,0.02388
3747.49,0.02515
3724.35,0.02418
3701.2,0.02400
3678.06,0.02531
3654.92,0.02386
3631.77,0.02272
3608.63,0.02348
3585.48,0.02314
3562.34,0.02297
3539.19,0.02230
3516.05,0.02233
3492.9,0.02254
3469.76,0.02193
3446.61,0.02194
3423.47,0.02115
3400.33,0.02191
3377.18,0.02155
3354.04,0.02189
3330.89,0.02216
3307.75,0.02281
3284.6,0.02173
3261.46,0.02226
3238.31,0.02261
3215.17,0.02261
3192.02,0.02268
3168.88,0.02236
3145.73,0.02294
3122.59,0.02249
3099.45,0.02220
3076.3,0.02275
3053.16,0.02242
3030.01,0.02291
3006.87,0.02258
2983.72,0.02234
2960.58,0.02206
2937.43,0.02175
2914.29,0.02213
2891.14,0.02247
2868,0.02300
2844.86,0.02327
2821.71,0.02357
2798.57,0.02351
2775.42,0.02287
2752.28,0.02343
2729.13,0.02339
2705.99,0.02371
2682.84,0.02314
2659.7,0.02384
2636.55,0.02342
2613.41,0.02341
2590.26,0.02354
2567.12,0.02338
2543.98,0.02389
2520.83,0.02345
2497.69,0.02329
2474.54,0.02390
2451.4,0.02331
2428.25,0.02395
2405.11,0.02330
2381.96,0.02292
2358.82,0.02330
2335.67,0.02398
2312.53,0.02440
2289.39,0.02336
2266.24,0.02357
2243.1,0.02394
2219.95,0.02388
2196.81,0.02358
2173.66,0.02369
2150.52,0.02359
2127.37,0.02380
2104.23,0.02332
2081.08,0.02356
2057.94,0.02332
2034.79,0.02346
2011.65,0.02321
1988.51,0.02347
1965.36,0.02336
1942.22,0.02334
1919.07,0.02375
1895.93,0.02351
1872.78,0.02352
1849.64,0.02324
1826.49,0.02269
1803.35,0.02293
1780.2,0.02180
1757.06,0.02037
1733.92,0.02182
1710.77,0.02345
1687.63,0.02181
1664.48,0.02081
1641.34,0.02126
1618.19,0.02157
1595.05,0.02147
1571.9,0.02111
1548.76,0.02084
1525.61,0.02170
1502.47,0.02165
1479.32,0.02082
1456.18,0.02097
1433.04,0.02062
1409.89,0.02088
1386.75,0.02007
1363.6,0.02059
1340.46,0.02024
1317.31,0.01900
1294.17,0.02003
1271.02,0.02138
1247.88,0.02213
1224.73,0.02137
1201.59,0.02087
1178.45,0.01998
1155.3,0.01958
1132.16,0.02034
1109.01,0.02016
1085.87,0.02100
1062.72,0.02202
1039.58,0.02132
1016.43,0.02134
993.288,0.02340
970.144,0.02280
946.999,0.02248
923.855,0.02224
900.71,0.02204
877.565,0.02121
854.421,0.02147
831.276,0.02139
808.132,0.02072
784.987,0.02046
761.843,0.01949
738.698,0.02044
715.553,0.01985
692.409,0.01914
669.264,0.01986
646.12,0.01714
622.975,0.01686
599.83,0.01676