Folder: fsri_materials_database/01_Data/PC/FTIR/IS (part 6)

File: PC_2.93_Trans_T_IS_230516_R4.dpt
7496.92,0.09093
7473.77,0.07478
7450.63,0.07363
7427.48,0.03243
7404.34,0.09111
7381.19,0.08019
7358.05,0.06249
7334.9,0.04961
7311.76,0.11028
7288.62,0.05440
7265.47,0.11293
7242.33,0.06696
7219.18,0.05123
7196.04,0.07268
7172.89,0.00682
7149.75,0.05799
7126.6,0.03968
7103.46,0.01643
7080.31,0.04463
7057.17,0.03341
7034.02,0.07751
7010.88,0.03633
6987.74,0.03184
6964.59,0.02664
6941.45,0.05292
6918.3,0.02005
6895.16,0.04131
6872.01,0.03812
6848.87,0.05809
6825.72,0.04029
6802.58,0.04467
6779.43,0.03859
6756.29,0.00499
6733.15,0.03818
6710,0.02235
6686.86,0.02396
6663.71,0.01660
6640.57,0.02364
6617.42,0.02359
6594.28,0.02657
6571.13,0.02086
6547.99,0.01986
6524.84,0.02590
6501.7,0.03692
6478.55,0.01669
6455.41,0.03848
6432.27,0.00117
6409.12,0.01357
6385.98,0.01699
6362.83,0.01557
6339.69,0.01518
6316.54,0.02596
6293.4,0.02111
6270.25,0.01552
6247.11,0.01290
6223.96,0.02577
6200.82,0.00647
6177.68,0.01811
6154.53,0.01146
6131.39,0.01356
6108.24,0.00877
6085.1,0.02207
6061.95,0.00710
6038.81,0.00598
6015.66,0.01001
5992.52,0.01685
5969.37,0.00674
5946.23,0.00958
5923.08,0.00954
5899.94,0.00553
5876.8,0.02140
5853.65,0.00931
5830.51,0.00648
5807.36,0.01732
5784.22,0.01621
5761.07,-0.00283
5737.93,0.01128
5714.78,0.01891
5691.64,0.00184
5668.49,0.00667
5645.35,0.00904
5622.21,0.00534
5599.06,0.00303
5575.92,0.00835
5552.77,0.01078
5529.63,0.00711
5506.48,0.01245
5483.34,0.00573
5460.19,0.00489
5437.05,0.00634
5413.9,0.00378
5390.76,0.00865
5367.61,0.00281
5344.47,0.00904
5321.33,0.01313
5298.18,0.00957
5275.04,0.00545
5251.89,0.00873
5228.75,0.00977
5205.6,0.00456
5182.46,0.00492
5159.31,0.00786
5136.17,0.00659
5113.02,0.00435
5089.88,0.00704
5066.74,0.00870
5043.59,0.00436
5020.45,0.00224
4997.3,0.00749
4974.16,0.00842
4951.01,0.00882
4927.87,0.00298
4904.72,0.00566
4881.58,0.00274
4858.43,0.00491
4835.29,0.00301
4812.14,0.00301
4789,0.00613
4765.86,0.00227
4742.71,0.00332
4719.57,0.00578
4696.42,0.00110
4673.28,-0.00008
4650.13,0.00164
4626.99,0.00582
4603.84,0.00393
4580.7,0.00297
4557.55,0.00309
4534.41,0.00355
4511.27,0.00377
4488.12,0.00179
4464.98,0.00264
4441.83,0.00383
4418.69,-0.00042
4395.54,0.00304
4372.4,0.00354
4349.25,0.00401
4326.11,0.00199
4302.96,0.00247
4279.82,0.00329
4256.67,0.00229
4233.53,0.00161
4210.39,0.00242
4187.24,0.00149
4164.1,0.00465
4140.95,0.00160
4117.81,0.00255
4094.66,0.00193
4071.52,0.00338
4048.37,0.00139
4025.23,0.00345
4002.08,0.00332
3978.94,0.00102
3955.8,0.00275
3932.65,0.00172
3909.51,0.00205
3886.36,0.00316
3863.22,0.00388
3840.07,0.00107
3816.93,0.00232
3793.78,0.00219
3770.64,0.00202
3747.49,0.00381
3724.35,0.00228
3701.2,0.00229
3678.06,0.00020
3654.92,0.00082
3631.77,0.00349
3608.63,0.00301
3585.48,0.00474
3562.34,0.00338
3539.19,0.00238
3516.05,0.00124
3492.9,0.00125
3469.76,0.00236
3446.61,0.00354
3423.47,0.00208
3400.33,0.00180
3377.18,0.00017
3354.04,0.00331
3330.89,-0.00008
3307.75,0.00288
3284.6,0.00186
3261.46,0.00203
3238.31,0.00117
3215.17,0.00138
3192.02,0.00035
3168.88,0.00217
3145.73,0.00245
3122.59,0.00253
3099.45,0.00213
3076.3,0.00104
3053.16,0.00191
3030.01,0.00162
3006.87,0.00208
2983.72,0.00171
2960.58,0.00128
2937.43,0.00117
2914.29,0.00053
2891.14,0.00130
2868,0.00032
2844.86,0.00084
2821.71,0.00105
2798.57,0.00064
2775.42,0.00144
2752.28,0.00133
2729.13,0.00096
2705.99,0.00120
2682.84,0.00169
2659.7,0.00146
2636.55,0.00189
2613.41,0.00091
2590.26,0.00077
2567.12,0.00010
2543.98,0.00058
2520.83,0.00245
2497.69,0.00084
2474.54,0.00185
2451.4,0.00100
2428.25,0.00063
2405.11,0.00047
2381.96,0.00091
2358.82,0.00366
2335.67,0.00032
2312.53,0.00079
2289.39,0.00112
2266.24,0.00068
2243.1,0.00035
2219.95,0.00104
2196.81,0.00082
2173.66,0.00093
2150.52,0.00072
2127.37,0.00110
2104.23,0.00065
2081.08,0.00070
2057.94,0.00082
2034.79,0.00105
2011.65,0.00097
1988.51,0.00057
1965.36,0.00076
1942.22,0.00050
1919.07,0.00096
1895.93,0.00048
1872.78,0.00073
1849.64,0.00154
1826.49,0.00098
1803.35,0.00086
1780.2,0.00138
1757.06,0.00069
1733.92,0.00162
1710.77,0.00173
1687.63,0.00166
1664.48,0.00114
1641.34,0.00122
1618.19,0.00092
1595.05,0.00054
1571.9,0.00035
1548.76,0.00175
1525.61,0.00166
1502.47,0.00139
1479.32,0.00064
1456.18,0.00325
1433.04,0.00069
1409.89,0.00046
1386.75,0.00068
1363.6,0.00111
1340.46,0.00071
1317.31,0.00083
1294.17,0.00047
1271.02,0.00126
1247.88,0.00134
1224.73,0.00072
1201.59,0.00073
1178.45,0.00106
1155.3,0.00063
1132.16,0.00086
1109.01,0.00112
1085.87,0.00091
1062.72,0.00159
1039.58,0.00093
1016.43,0.00139
993.288,0.00146
970.144,0.00117
946.999,0.00122
923.855,0.00079
900.71,0.00197
877.565,0.00136
854.421,0.00141
831.276,0.00274
808.132,0.00308
784.987,0.00213
761.843,0.00380
738.698,0.00039
715.553,0.00222
692.409,0.00140
669.264,0.00644
646.12,0.00420
622.975,0.00649
599.83,0.00563

File: PC_IS_S_230508_R1.dpt
7496.92,0.12646
7473.77,0.12208
7450.63,0.12141
7427.48,0.12729
7404.34,0.12343
7381.19,0.10014
7358.05,0.12857
7334.9,0.10313
7311.76,0.10677
7288.62,0.09677
7265.47,0.09757
7242.33,0.10023
7219.18,0.10387
7196.04,0.10209
7172.89,0.10467
7149.75,0.09759
7126.6,0.10042
7103.46,0.09761
7080.31,0.09928
7057.17,0.11071
7034.02,0.11224
7010.88,0.11524
6987.74,0.11457
6964.59,0.11658
6941.45,0.11641
6918.3,0.12136
6895.16,0.11585
6872.01,0.10916
6848.87,0.11341
6825.72,0.11956
6802.58,0.12041
6779.43,0.11673
6756.29,0.11823
6733.15,0.12675
6710,0.11676
6686.86,0.11046
6663.71,0.12552
6640.57,0.12635
6617.42,0.12814
6594.28,0.12649
6571.13,0.12968
6547.99,0.13044
6524.84,0.13039
6501.7,0.13097
6478.55,0.12992
6455.41,0.13013
6432.27,0.12770
6409.12,0.12964
6385.98,0.13146
6362.83,0.12785
6339.69,0.12932
6316.54,0.12358
6293.4,0.12430
6270.25,0.11707
6247.11,0.11009
6223.96,0.11174
6200.82,0.10341
6177.68,0.08733
6154.53,0.08642
6131.39,0.07116
6108.24,0.06875
6085.1,0.06060
6061.95,0.06009
6038.81,0.05470
6015.66,0.05368
5992.52,0.05727
5969.37,0.05632
5946.23,0.05701
5923.08,0.05737
5899.94,0.05775
5876.8,0.05560
5853.65,0.06315
5830.51,0.06346
5807.36,0.06557
5784.22,0.05962
5761.07,0.06233
5737.93,0.06539
5714.78,0.07543
5691.64,0.07380
5668.49,0.07063
5645.35,0.07244
5622.21,0.08433
5599.06,0.08807
5575.92,0.08601
5552.77,0.08682
5529.63,0.08343
5506.48,0.08663
5483.34,0.08437
5460.19,0.08318
5437.05,0.08912
5413.9,0.08680
5390.76,0.08851
5367.61,0.08722
5344.47,0.08781
5321.33,0.08746
5298.18,0.08455
5275.04,0.07242
5251.89,0.07207
5228.75,0.08680
5205.6,0.09232
5182.46,0.09041
5159.31,0.09184
5136.17,0.09672
5113.02,0.09868
5089.88,0.09657
5066.74,0.09755
5043.59,0.09580
5020.45,0.09565
4997.3,0.09274
4974.16,0.09018
4951.01,0.08989
4927.87,0.08857
4904.72,0.07965
4881.58,0.07730
4858.43,0.07166
4835.29,0.07132
4812.14,0.07319
4789,0.07169
4765.86,0.06781
4742.71,0.06369
4719.57,0.06212
4696.42,0.06109
4673.28,0.06150
4650.13,0.06164
4626.99,0.06059
4603.84,0.06217
4580.7,0.06096
4557.55,0.06255
4534.41,0.06229
4511.27,0.06275
4488.12,0.06180
4464.98,0.06168
4441.83,0.06104
4418.69,0.06168
4395.54,0.06173
4372.4,0.06198
4349.25,0.06195
4326.11,0.06171
4302.96,0.06141
4279.82,0.06223
4256.67,0.06151
4233.53,0.06179
4210.39,0.06211
4187.24,0.06277
4164.1,0.06254
4140.95,0.06211
4117.81,0.06225
4094.66,0.06203
4071.52,0.06208
4048.37,0.06296
4025.23,0.06281
4002.08,0.06315
3978.94,0.06264
3955.8,0.06330
3932.65,0.06246
3909.51,0.06397
3886.36,0.06241
3863.22,0.06212
3840.07,0.06233
3816.93,0.06238
3793.78,0.06349
3770.64,0.06358
3747.49,0.06168
3724.35,0.06333
3701.2,0.06219
3678.06,0.06207
3654.92,0.06229
3631.77,0.06298
3608.63,0.06241
3585.48,0.06180
3562.34,0.06217
3539.19,0.06207
3516.05,0.06253
3492.9,0.06190
3469.76,0.06181
3446.61,0.06186
3423.47,0.06101
3400.33,0.06254
3377.18,0.06148
3354.04,0.06150
3330.89,0.06168
3307.75,0.06104
3284.6,0.06159
3261.46,0.06213
3238.31,0.06143
3215.17,0.06210
3192.02,0.06205
3168.88,0.06191
3145.73,0.06145
3122.59,0.06179
3099.45,0.06174
3076.3,0.06157
3053.16,0.06141
3030.01,0.06165
3006.87,0.06110
2983.72,0.06016
2960.58,0.06450
2937.43,0.06469
2914.29,0.06519
2891.14,0.06398
2868,0.06432
2844.86,0.06344
2821.71,0.06350
2798.57,0.06339
2775.42,0.06329
2752.28,0.06343
2729.13,0.06334
2705.99,0.06302
2682.84,0.06321
2659.7,0.06279
2636.55,0.06274
2613.41,0.06288
2590.26,0.06247
2567.12,0.06247
2543.98,0.06243
2520.83,0.06227
2497.69,0.06219
2474.54,0.06256
2451.4,0.06267
2428.25,0.06245
2405.11,0.06290
2381.96,0.06313
2358.82,0.06296
2335.67,0.06135
2312.53,0.06295
2289.39,0.06256
2266.24,0.06191
2243.1,0.06194
2219.95,0.06203
2196.81,0.06187
2173.66,0.06193
2150.52,0.06225
2127.37,0.06172
2104.23,0.06144
2081.08,0.06134
2057.94,0.06101
2034.79,0.06073
2011.65,0.06064
1988.51,0.06083
1965.36,0.06025
1942.22,0.05985
1919.07,0.05906
1895.93,0.05877
1872.78,0.05793
1849.64,0.05645
1826.49,0.05389
1803.35,0.04736
1780.2,0.05873
1757.06,0.07954
1733.92,0.06791
1710.77,0.06487
1687.63,0.06186
1664.48,0.06059
1641.34,0.06029
1618.19,0.05933
1595.05,0.05930
1571.9,0.05740
1548.76,0.05492
1525.61,0.04929
1502.47,0.07194
1479.32,0.06316
1456.18,0.05943
1433.04,0.05701
1409.89,0.05450
1386.75,0.05388
1363.6,0.05250
1340.46,0.04764
1317.31,0.04060
1294.17,0.03471
1271.02,0.02208
1247.88,0.09231
1224.73,0.13600
1201.59,0.08875
1178.45,0.11060
1155.3,0.13779
1132.16,0.09973
1109.01,0.08747
1085.87,0.07785
1062.72,0.08459
1039.58,0.07753
1016.43,0.07842
993.288,0.08607
970.144,0.08044
946.999,0.07755
923.855,0.07453
900.71,0.07045
877.565,0.07486
854.421,0.06571
831.276,0.07725
808.132,0.08484
784.987,0.07419
761.843,0.07925
738.698,0.07778
715.553,0.07545
692.409,0.07520
669.264,0.07447
646.12,0.07124
622.975,0.07034
599.83,0.06854

File: PC_IS_S_230508_R2.dpt
7496.92,0.12454
7473.77,0.12710
7450.63,0.13213
7427.48,0.11052
7404.34,0.13036
7381.19,0.11052
7358.05,0.10551
7334.9,0.09587
7311.76,0.09037
7288.62,0.10228
7265.47,0.09291
7242.33,0.08913
7219.18,0.11044
7196.04,0.10145
7172.89,0.10377
7149.75,0.10183
7126.6,0.09536
7103.46,0.10379
7080.31,0.11091
7057.17,0.11499
7034.02,0.11494
7010.88,0.10724
6987.74,0.11860
6964.59,0.11545
6941.45,0.11350
6918.3,0.11901
6895.16,0.11023
6872.01,0.11533
6848.87,0.11527
6825.72,0.11357
6802.58,0.11288
6779.43,0.11238
6756.29,0.12283
6733.15,0.11607
6710,0.12390
6686.86,0.12109
6663.71,0.12451
6640.57,0.13116
6617.42,0.12756
6594.28,0.12773
6571.13,0.12873
6547.99,0.13217
6524.84,0.13012
6501.7,0.12661
6478.55,0.13068
6455.41,0.13289
6432.27,0.13003
6409.12,0.13014
6385.98,0.12402
6362.83,0.13078
6339.69,0.12983
6316.54,0.12310
6293.4,0.12087
6270.25,0.11318
6247.11,0.11233
6223.96,0.11025
6200.82,0.09803
6177.68,0.08717
6154.53,0.08306
6131.39,0.07556
6108.24,0.06846
6085.1,0.06038
6061.95,0.06001
6038.81,0.05826
6015.66,0.05570
5992.52,0.05734
5969.37,0.05787
5946.23,0.05930
5923.08,0.05650
5899.94,0.05538
5876.8,0.05842
5853.65,0.05978
5830.51,0.06527
5807.36,0.06489
5784.22,0.06202
5761.07,0.06462
5737.93,0.06513
5714.78,0.07742
5691.64,0.07750
5668.49,0.07262
5645.35,0.07316
5622.21,0.08590
5599.06,0.08831
5575.92,0.08702
5552.77,0.08636
5529.63,0.08581
5506.48,0.08493
5483.34,0.08462
5460.19,0.08409
5437.05,0.08985
5413.9,0.08695
5390.76,0.08633
5367.61,0.08985
5344.47,0.08796
5321.33,0.08815
5298.18,0.08183
5275.04,0.07155
5251.89,0.07015
5228.75,0.08653
5205.6,0.09230
5182.46,0.09216
5159.31,0.09254
5136.17,0.09735
5113.02,0.09884
5089.88,0.09788
5066.74,0.09577
5043.59,0.09719
5020.45,0.09610
4997.3,0.09343
4974.16,0.08992
4951.01,0.09004
4927.87,0.08843
4904.72,0.07969
4881.58,0.07669
4858.43,0.07196
4835.29,0.07155
4812.14,0.07355
4789,0.07222
4765.86,0.06751
4742.71,0.06375
4719.57,0.06122
4696.42,0.06160
4673.28,0.06126
4650.13,0.06245
4626.99,0.06158
4603.84,0.06182
4580.7,0.06206
4557.55,0.06180
4534.41,0.06150
4511.27,0.06233
4488.12,0.06178
4464.98,0.06248
4441.83,0.06242
4418.69,0.06171
4395.54,0.06269
4372.4,0.06281
4349.25,0.06219
4326.11,0.06168
4302.96,0.06290
4279.82,0.06242
4256.67,0.06232
4233.53,0.06260
4210.39,0.06339
4187.24,0.06299
4164.1,0.06247
4140.95,0.06235
4117.81,0.06243
4094.66,0.06280
4071.52,0.06180
4048.37,0.06275
4025.23,0.06343
4002.08,0.06381
3978.94,0.06325
3955.8,0.06308
3932.65,0.06253
3909.51,0.06345
3886.36,0.06397
3863.22,0.06270
3840.07,0.06366
3816.93,0.06300
3793.78,0.06319
3770.64,0.06316
3747.49,0.06165
3724.35,0.06330
3701.2,0.06320
3678.06,0.06244
3654.92,0.06388
3631.77,0.06186
3608.63,0.06280
3585.48,0.06181
3562.34,0.06305
3539.19,0.06294
3516.05,0.06272
3492.9,0.06248
3469.76,0.06183
3446.61,0.06166
3423.47,0.06227
3400.33,0.06167
3377.18,0.06181
3354.04,0.06267
3330.89,0.06236
3307.75,0.06147
3284.6,0.06147
3261.46,0.06233
3238.31,0.06210
3215.17,0.06206
3192.02,0.06218
3168.88,0.06238
3145.73,0.06192
3122.59,0.06156
3099.45,0.06156
3076.3,0.06219
3053.16,0.06130
3030.01,0.06255
3006.87,0.06139
2983.72,0.06046
2960.58,0.06464
2937.43,0.06431
2914.29,0.06489
2891.14,0.06340
2868,0.06444
2844.86,0.06431
2821.71,0.06377
2798.57,0.06333
2775.42,0.06349
2752.28,0.06340
2729.13,0.06367
2705.99,0.06299
2682.84,0.06338
2659.7,0.06338
2636.55,0.06334
2613.41,0.06296
2590.26,0.06256
2567.12,0.06307
2543.98,0.06323
2520.83,0.06269
2497.69,0.06304
2474.54,0.06291
2451.4,0.06260
2428.25,0.06276
2405.11,0.06301
2381.96,0.06319
2358.82,0.06355
2335.67,0.06291
2312.53,0.06317
2289.39,0.06250
2266.24,0.06241
2243.1,0.06213
2219.95,0.06246
2196.81,0.06204
2173.66,0.06240
2150.52,0.06204
2127.37,0.06173
2104.23,0.06113
2081.08,0.06131
2057.94,0.06131
2034.79,0.06093
2011.65,0.06076
1988.51,0.06063
1965.36,0.06031
1942.22,0.05993
1919.07,0.05922
1895.93,0.05893
1872.78,0.05796
1849.64,0.05691
1826.49,0.05379
1803.35,0.04705
1780.2,0.05882
1757.06,0.08026
1733.92,0.06847
1710.77,0.06486
1687.63,0.06313
1664.48,0.06132
1641.34,0.06073
1618.19,0.05943
1595.05,0.05933
1571.9,0.05827
1548.76,0.05460
1525.61,0.05083
1502.47,0.07179
1479.32,0.06391
1456.18,0.05986
1433.04,0.05733
1409.89,0.05497
1386.75,0.05379
1363.6,0.05292
1340.46,0.04818
1317.31,0.04091
1294.17,0.03497
1271.02,0.02225
1247.88,0.09225
1224.73,0.13695
1201.59,0.08928
1178.45,0.11101
1155.3,0.13882
1132.16,0.09974
1109.01,0.08819
1085.87,0.07772
1062.72,0.08423
1039.58,0.07730
1016.43,0.07837
993.288,0.08659
970.144,0.08035
946.999,0.07746
923.855,0.07528
900.71,0.07156
877.565,0.07522
854.421,0.06609
831.276,0.07772
808.132,0.08477
784.987,0.07529
761.843,0.07945
738.698,0.07774
715.553,0.07586
692.409,0.07603
669.264,0.07478
646.12,0.07363
622.975,0.07357
599.83,0.06822

File: PC_IS_S_230508_R3.dpt
7496.92,0.12930
7473.77,0.12869
7450.63,0.12361
7427.48,0.11961
7404.34,0.10903
7381.19,0.10543
7358.05,0.10778
7334.9,0.11409
7311.76,0.11162
7288.62,0.08810
7265.47,0.10004
7242.33,0.08383
7219.18,0.10185
7196.04,0.09987
7172.89,0.09717
7149.75,0.09330
7126.6,0.10160
7103.46,0.09561
7080.31,0.10653
7057.17,0.11603
7034.02,0.10559
7010.88,0.10467
6987.74,0.11106
6964.59,0.11538
6941.45,0.11597
6918.3,0.11394
6895.16,0.11214
6872.01,0.11682
6848.87,0.10984
6825.72,0.10942
6802.58,0.12214
6779.43,0.12086
6756.29,0.11900
6733.15,0.12415
6710,0.12128
6686.86,0.12383
6663.71,0.12742
6640.57,0.12564
6617.42,0.12149
6594.28,0.12906
6571.13,0.13241
6547.99,0.13400
6524.84,0.12765
6501.7,0.13032
6478.55,0.12902
6455.41,0.13385
6432.27,0.12508
6409.12,0.13280
6385.98,0.12957
6362.83,0.12873
6339.69,0.11928
6316.54,0.12204
6293.4,0.12410
6270.25,0.11921
6247.11,0.11253
6223.96,0.11094
6200.82,0.10430
6177.68,0.08975
6154.53,0.08700
6131.39,0.07520
6108.24,0.06890
6085.1,0.06208
6061.95,0.05708
6038.81,0.05849
6015.66,0.06035
5992.52,0.05757
5969.37,0.05537
5946.23,0.05708
5923.08,0.05720
5899.94,0.05525
5876.8,0.05845
5853.65,0.06002
5830.51,0.06292
5807.36,0.06148
5784.22,0.06583
5761.07,0.06078
5737.93,0.06750
5714.78,0.07572
5691.64,0.07800
5668.49,0.07071
5645.35,0.07340
5622.21,0.08478
5599.06,0.08637
5575.92,0.08780
5552.77,0.08656
5529.63,0.08579
5506.48,0.08729
5483.34,0.08185
5460.19,0.08457
5437.05,0.08709
5413.9,0.09180
5390.76,0.08840
5367.61,0.09057
5344.47,0.08725
5321.33,0.08791
5298.18,0.08297
5275.04,0.07283
5251.89,0.07386
5228.75,0.08639
5205.6,0.09171
5182.46,0.09147
5159.31,0.09324
5136.17,0.09742
5113.02,0.09775
5089.88,0.09849
5066.74,0.09596
5043.59,0.09864
5020.45,0.09666
4997.3,0.09414
4974.16,0.09021
4951.01,0.09018
4927.87,0.08806
4904.72,0.08053
4881.58,0.07636
4858.43,0.07243
4835.29,0.07143
4812.14,0.07310
4789,0.07275
4765.86,0.06923
4742.71,0.06468
4719.57,0.06277
4696.42,0.06243
4673.28,0.06198
4650.13,0.06183
4626.99,0.06134
4603.84,0.06154
4580.7,0.06111
4557.55,0.06286
4534.41,0.06327
4511.27,0.06236
4488.12,0.06114
4464.98,0.06266
4441.83,0.06183
4418.69,0.06221
4395.54,0.06253
4372.4,0.06242
4349.25,0.06269
4326.11,0.06224
4302.96,0.06195
4279.82,0.06200
4256.67,0.06324
4233.53,0.06241
4210.39,0.06239
4187.24,0.06214
4164.1,0.06300
4140.95,0.06244
4117.81,0.06277
4094.66,0.06305
4071.52,0.06257
4048.37,0.06272
4025.23,0.06343
4002.08,0.06340
3978.94,0.06355
3955.8,0.06358
3932.65,0.06276
3909.51,0.06362
3886.36,0.06432
3863.22,0.06313
3840.07,0.06468
3816.93,0.06366
3793.78,0.06311
3770.64,0.06315
3747.49,0.06238
3724.35,0.06247
3701.2,0.06286
3678.06,0.06464
3654.92,0.06296
3631.77,0.06255
3608.63,0.06186
3585.48,0.06306
3562.34,0.06180
3539.19,0.06236
3516.05,0.06253
3492.9,0.06249
3469.76,0.06171
3446.61,0.06173
3423.47,0.06225
3400.33,0.06209
3377.18,0.06229
3354.04,0.06175
3330.89,0.06268
3307.75,0.06125
3284.6,0.06216
3261.46,0.06235
3238.31,0.06179
3215.17,0.06179
3192.02,0.06227
3168.88,0.06253
3145.73,0.06229
3122.59,0.06193
3099.45,0.06259
3076.3,0.06206
3053.16,0.06158
3030.01,0.06285
3006.87,0.06124
2983.72,0.06026
2960.58,0.06461
2937.43,0.06369
2914.29,0.06471
2891.14,0.06414
2868,0.06429
2844.86,0.06387
2821.71,0.06341
2798.57,0.06306
2775.42,0.06356
2752.28,0.06340
2729.13,0.06349
2705.99,0.06308
2682.84,0.06289
2659.7,0.06282
2636.55,0.06311
2613.41,0.06321
2590.26,0.06311
2567.12,0.06338
2543.98,0.06290
2520.83,0.06273
2497.69,0.06300
2474.54,0.06288
2451.4,0.06320
2428.25,0.06254
2405.11,0.06234
2381.96,0.06266
2358.82,0.06201
2335.67,0.06252
2312.53,0.06251
2289.39,0.06254
2266.24,0.06226
2243.1,0.06229
2219.95,0.06226
2196.81,0.06233
2173.66,0.06207
2150.52,0.06159
2127.37,0.06151
2104.23,0.06144
2081.08,0.06130
2057.94,0.06112
2034.79,0.06139
2011.65,0.06149
1988.51,0.06081
1965.36,0.06022
1942.22,0.06019
1919.07,0.05941
1895.93,0.05913
1872.78,0.05791
1849.64,0.05652
1826.49,0.05376
1803.35,0.04737
1780.2,0.06009
1757.06,0.08034
1733.92,0.06874
1710.77,0.06501
1687.63,0.06280
1664.48,0.06068
1641.34,0.05995
1618.19,0.05900
1595.05,0.05926
1571.9,0.05797
1548.76,0.05455
1525.61,0.04996
1502.47,0.07191
1479.32,0.06328
1456.18,0.06026
1433.04,0.05740
1409.89,0.05497
1386.75,0.05390
1363.6,0.05273
1340.46,0.04788
1317.31,0.04048
1294.17,0.03457
1271.02,0.02201
1247.88,0.09445
1224.73,0.13825
1201.59,0.09049
1178.45,0.11154
1155.3,0.13848
1132.16,0.09999
1109.01,0.08850
1085.87,0.07758
1062.72,0.08465
1039.58,0.07675
1016.43,0.07891
993.288,0.08685
970.144,0.08019
946.999,0.07756
923.855,0.07509
900.71,0.07121
877.565,0.07518
854.421,0.06674
831.276,0.07792
808.132,0.08451
784.987,0.07585
761.843,0.08018
738.698,0.07704
715.553,0.07576
692.409,0.07617
669.264,0.07526
646.12,0.07324
622.975,0.07149
599.83,0.06841

File: PC_IS_S_230508_R4.dpt
7496.92,0.13100
7473.77,0.13516
7450.63,0.12082
7427.48,0.13040
7404.34,0.11202
7381.19,0.12226
7358.05,0.11157
7334.9,0.10997
7311.76,0.10283
7288.62,0.10056
7265.47,0.09861
7242.33,0.08907
7219.18,0.10750
7196.04,0.09391
7172.89,0.09199
7149.75,0.09496
7126.6,0.10094
7103.46,0.10823
7080.31,0.10697
7057.17,0.11135
7034.02,0.10647
7010.88,0.11101
6987.74,0.10953
6964.59,0.11435
6941.45,0.10866
6918.3,0.12497
6895.16,0.11777
6872.01,0.11301
6848.87,0.11593
6825.72,0.12372
6802.58,0.11672
6779.43,0.11502
6756.29,0.12492
6733.15,0.12430
6710,0.12263
6686.86,0.12487
6663.71,0.12420
6640.57,0.12443
6617.42,0.13149
6594.28,0.13102
6571.13,0.13041
6547.99,0.12934
6524.84,0.13426
6501.7,0.13007
6478.55,0.13255
6455.41,0.12622
6432.27,0.12823
6409.12,0.12964
6385.98,0.13102
6362.83,0.12428
6339.69,0.12768
6316.54,0.12439
6293.4,0.12381
6270.25,0.12034
6247.11,0.11555
6223.96,0.10969
6200.82,0.10156
6177.68,0.09030
6154.53,0.08412
6131.39,0.07710
6108.24,0.07121
6085.1,0.06017
6061.95,0.05861
6038.81,0.05489
6015.66,0.05858
5992.52,0.05619
5969.37,0.05925
5946.23,0.05621
5923.08,0.05547
5899.94,0.05826
5876.8,0.06142
5853.65,0.05881
5830.51,0.06485
5807.36,0.06486
5784.22,0.06372
5761.07,0.06156
5737.93,0.06442
5714.78,0.07669
5691.64,0.07905
5668.49,0.07298
5645.35,0.07303
5622.21,0.08785
5599.06,0.08922
5575.92,0.08897
5552.77,0.08623
5529.63,0.08619
5506.48,0.08765
5483.34,0.08436
5460.19,0.08329
5437.05,0.09031
5413.9,0.08833
5390.76,0.08789
5367.61,0.09027
5344.47,0.08612
5321.33,0.08639
5298.18,0.08424
5275.04,0.07172
5251.89,0.07229
5228.75,0.08516
5205.6,0.09015
5182.46,0.09288
5159.31,0.09438
5136.17,0.09514
5113.02,0.09801
5089.88,0.09706
5066.74,0.09678
5043.59,0.09820
5020.45,0.09533
4997.3,0.09354
4974.16,0.09121
4951.01,0.09044
4927.87,0.08891
4904.72,0.07994
4881.58,0.07680
4858.43,0.07212
4835.29,0.07191
4812.14,0.07370
4789,0.07266
4765.86,0.06850
4742.71,0.06428
4719.57,0.06185
4696.42,0.06207
4673.28,0.06132
4650.13,0.06210
4626.99,0.06279
4603.84,0.06193
4580.7,0.06116
4557.55,0.06261
4534.41,0.06247
4511.27,0.06401
4488.12,0.06212
4464.98,0.06207
4441.83,0.06186
4418.69,0.06205
4395.54,0.06193
4372.4,0.06336
4349.25,0.06206
4326.11,0.06226
4302.96,0.06209
4279.82,0.06290
4256.67,0.06226
4233.53,0.06197
4210.39,0.06274
4187.24,0.06310
4164.1,0.06295
4140.95,0.06236
4117.81,0.06311
4094.66,0.06323
4071.52,0.06291
4048.37,0.06280
4025.23,0.06266
4002.08,0.06270
3978.94,0.06257
3955.8,0.06309
3932.65,0.06266
3909.51,0.06282
3886.36,0.06355
3863.22,0.06149
3840.07,0.06213
3816.93,0.06437
3793.78,0.06318
3770.64,0.06391
3747.49,0.06284
3724.35,0.06240
3701.2,0.06257
3678.06,0.06237
3654.92,0.06315
3631.77,0.06237
3608.63,0.06269
3585.48,0.06142
3562.34,0.06258
3539.19,0.06246
3516.05,0.06217
3492.9,0.06192
3469.76,0.06145
3446.61,0.06264
3423.47,0.06183
3400.33,0.06220
3377.18,0.06233
3354.04,0.06236
3330.89,0.06120
3307.75,0.06225
3284.6,0.06195
3261.46,0.06180
3238.31,0.06220
3215.17,0.06181
3192.02,0.06112
3168.88,0.06254
3145.73,0.06275
3122.59,0.06204
3099.45,0.06199
3076.3,0.06190
3053.16,0.06126
3030.01,0.06199
3006.87,0.06146
2983.72,0.06034
2960.58,0.06438
2937.43,0.06391
2914.29,0.06410
2891.14,0.06318
2868,0.06456
2844.86,0.06391
2821.71,0.06315
2798.57,0.06324
2775.42,0.06319
2752.28,0.06336
2729.13,0.06260
2705.99,0.06293
2682.84,0.06312
2659.7,0.06298
2636.55,0.06311
2613.41,0.06320
2590.26,0.06316
2567.12,0.06290
2543.98,0.06278
2520.83,0.06257
2497.69,0.06261
2474.54,0.06249
2451.4,0.06255
2428.25,0.06276
2405.11,0.06261
2381.96,0.06308
2358.82,0.06237
2335.67,0.06321
2312.53,0.06262
2289.39,0.06267
2266.24,0.06222
2243.1,0.06220
2219.95,0.06243
2196.81,0.06205
2173.66,0.06174
2150.52,0.06182
2127.37,0.06171
2104.23,0.06145
2081.08,0.06155
2057.94,0.06094
2034.79,0.06104
2011.65,0.06076
1988.51,0.06057
1965.36,0.06033
1942.22,0.05979
1919.07,0.05930
1895.93,0.05890
1872.78,0.05792
1849.64,0.05669
1826.49,0.05412
1803.35,0.04744
1780.2,0.05966
1757.06,0.08018
1733.92,0.06834
1710.77,0.06448
1687.63,0.06211
1664.48,0.06103
1641.34,0.06010
1618.19,0.05804
1595.05,0.05943
1571.9,0.05768
1548.76,0.05476
1525.61,0.05024
1502.47,0.07278
1479.32,0.06319
1456.18,0.05968
1433.04,0.05726
1409.89,0.05495
1386.75,0.05375
1363.6,0.05246
1340.46,0.04751
1317.31,0.04016
1294.17,0.03453
1271.02,0.02194
1247.88,0.09420
1224.73,0.13759
1201.59,0.08973
1178.45,0.11179
1155.3,0.13877
1132.16,0.10012
1109.01,0.08846
1085.87,0.07844
1062.72,0.08554
1039.58,0.07695
1016.43,0.07895
993.288,0.08689
970.144,0.08027
946.999,0.07775
923.855,0.07432
900.71,0.07055
877.565,0.07425
854.421,0.06601
831.276,0.07850
808.132,0.08444
784.987,0.07485
761.843,0.07963
738.698,0.07736
715.553,0.07643
692.409,0.07566
669.264,0.07544
646.12,0.07184
622.975,0.07081
599.83,0.06841