Folder: fsri_materials_database/01_Data/PC/FTIR/IS (part 7)

File: PC_IS_S_230508_R5.dpt
7496.92,0.12468
7473.77,0.12487
7450.63,0.11292
7427.48,0.12090
7404.34,0.12214
7381.19,0.11089
7358.05,0.10116
7334.9,0.11288
7311.76,0.09432
7288.62,0.10053
7265.47,0.09765
7242.33,0.10785
7219.18,0.10844
7196.04,0.09872
7172.89,0.10056
7149.75,0.10300
7126.6,0.10372
7103.46,0.10143
7080.31,0.10780
7057.17,0.10761
7034.02,0.10812
7010.88,0.10405
6987.74,0.11068
6964.59,0.12484
6941.45,0.11530
6918.3,0.11888
6895.16,0.11062
6872.01,0.11827
6848.87,0.12195
6825.72,0.10888
6802.58,0.11874
6779.43,0.11761
6756.29,0.11820
6733.15,0.12373
6710,0.12385
6686.86,0.12333
6663.71,0.12552
6640.57,0.12847
6617.42,0.12785
6594.28,0.12698
6571.13,0.13288
6547.99,0.12528
6524.84,0.12986
6501.7,0.12266
6478.55,0.12777
6455.41,0.12898
6432.27,0.12976
6409.12,0.13073
6385.98,0.12588
6362.83,0.12860
6339.69,0.12863
6316.54,0.12272
6293.4,0.12423
6270.25,0.11902
6247.11,0.11545
6223.96,0.10854
6200.82,0.10066
6177.68,0.08801
6154.53,0.08633
6131.39,0.07620
6108.24,0.06937
6085.1,0.06083
6061.95,0.05666
6038.81,0.05923
6015.66,0.05926
5992.52,0.05612
5969.37,0.05470
5946.23,0.05436
5923.08,0.05804
5899.94,0.05738
5876.8,0.05766
5853.65,0.06231
5830.51,0.06407
5807.36,0.06378
5784.22,0.06368
5761.07,0.06421
5737.93,0.06777
5714.78,0.07522
5691.64,0.07869
5668.49,0.07096
5645.35,0.07233
5622.21,0.08346
5599.06,0.08681
5575.92,0.08752
5552.77,0.08633
5529.63,0.08615
5506.48,0.08568
5483.34,0.08276
5460.19,0.08405
5437.05,0.08757
5413.9,0.08626
5390.76,0.08683
5367.61,0.08930
5344.47,0.08589
5321.33,0.08750
5298.18,0.08394
5275.04,0.07009
5251.89,0.07144
5228.75,0.08416
5205.6,0.09242
5182.46,0.09342
5159.31,0.09204
5136.17,0.09748
5113.02,0.09848
5089.88,0.09811
5066.74,0.09693
5043.59,0.09961
5020.45,0.09576
4997.3,0.09417
4974.16,0.09265
4951.01,0.09154
4927.87,0.08778
4904.72,0.07823
4881.58,0.07653
4858.43,0.07182
4835.29,0.07134
4812.14,0.07421
4789,0.07215
4765.86,0.06774
4742.71,0.06398
4719.57,0.06142
4696.42,0.06173
4673.28,0.06156
4650.13,0.06262
4626.99,0.06206
4603.84,0.06126
4580.7,0.06169
4557.55,0.06201
4534.41,0.06380
4511.27,0.06189
4488.12,0.06166
4464.98,0.06281
4441.83,0.06243
4418.69,0.06228
4395.54,0.06120
4372.4,0.06145
4349.25,0.06260
4326.11,0.06265
4302.96,0.06198
4279.82,0.06251
4256.67,0.06262
4233.53,0.06157
4210.39,0.06236
4187.24,0.06273
4164.1,0.06214
4140.95,0.06296
4117.81,0.06308
4094.66,0.06305
4071.52,0.06256
4048.37,0.06308
4025.23,0.06290
4002.08,0.06361
3978.94,0.06287
3955.8,0.06328
3932.65,0.06358
3909.51,0.06349
3886.36,0.06316
3863.22,0.06253
3840.07,0.06474
3816.93,0.06286
3793.78,0.06354
3770.64,0.06270
3747.49,0.06183
3724.35,0.06446
3701.2,0.06296
3678.06,0.06429
3654.92,0.06261
3631.77,0.06203
3608.63,0.06283
3585.48,0.06142
3562.34,0.06202
3539.19,0.06195
3516.05,0.06312
3492.9,0.06301
3469.76,0.06158
3446.61,0.06247
3423.47,0.06239
3400.33,0.06224
3377.18,0.06227
3354.04,0.06130
3330.89,0.06153
3307.75,0.06224
3284.6,0.06226
3261.46,0.06203
3238.31,0.06249
3215.17,0.06204
3192.02,0.06185
3168.88,0.06180
3145.73,0.06228
3122.59,0.06197
3099.45,0.06176
3076.3,0.06218
3053.16,0.06180
3030.01,0.06198
3006.87,0.06091
2983.72,0.05995
2960.58,0.06430
2937.43,0.06358
2914.29,0.06402
2891.14,0.06341
2868,0.06396
2844.86,0.06347
2821.71,0.06320
2798.57,0.06338
2775.42,0.06320
2752.28,0.06364
2729.13,0.06378
2705.99,0.06312
2682.84,0.06290
2659.7,0.06323
2636.55,0.06322
2613.41,0.06307
2590.26,0.06280
2567.12,0.06261
2543.98,0.06279
2520.83,0.06290
2497.69,0.06289
2474.54,0.06248
2451.4,0.06274
2428.25,0.06238
2405.11,0.06296
2381.96,0.06307
2358.82,0.06278
2335.67,0.06504
2312.53,0.06234
2289.39,0.06208
2266.24,0.06210
2243.1,0.06234
2219.95,0.06256
2196.81,0.06223
2173.66,0.06240
2150.52,0.06211
2127.37,0.06203
2104.23,0.06140
2081.08,0.06150
2057.94,0.06140
2034.79,0.06117
2011.65,0.06085
1988.51,0.06088
1965.36,0.06065
1942.22,0.05964
1919.07,0.05946
1895.93,0.05896
1872.78,0.05797
1849.64,0.05655
1826.49,0.05454
1803.35,0.04723
1780.2,0.05995
1757.06,0.08037
1733.92,0.06900
1710.77,0.06503
1687.63,0.06284
1664.48,0.06048
1641.34,0.06056
1618.19,0.05954
1595.05,0.05931
1571.9,0.05787
1548.76,0.05483
1525.61,0.05029
1502.47,0.07249
1479.32,0.06336
1456.18,0.06020
1433.04,0.05768
1409.89,0.05535
1386.75,0.05422
1363.6,0.05227
1340.46,0.04847
1317.31,0.04051
1294.17,0.03480
1271.02,0.02211
1247.88,0.09403
1224.73,0.13834
1201.59,0.08965
1178.45,0.11146
1155.3,0.13866
1132.16,0.09952
1109.01,0.08895
1085.87,0.07753
1062.72,0.08474
1039.58,0.07751
1016.43,0.07989
993.288,0.08718
970.144,0.08119
946.999,0.07750
923.855,0.07501
900.71,0.07112
877.565,0.07552
854.421,0.06545
831.276,0.07881
808.132,0.08448
784.987,0.07563
761.843,0.08031
738.698,0.07734
715.553,0.07498
692.409,0.07757
669.264,0.07484
646.12,0.07307
622.975,0.07076
599.83,0.06857

File: PC_IS_S_230508_R6.dpt
7496.92,0.11923
7473.77,0.12532
7450.63,0.10982
7427.48,0.12303
7404.34,0.11954
7381.19,0.10879
7358.05,0.11003
7334.9,0.09629
7311.76,0.09678
7288.62,0.09532
7265.47,0.09618
7242.33,0.10152
7219.18,0.09296
7196.04,0.10055
7172.89,0.09107
7149.75,0.09596
7126.6,0.10634
7103.46,0.09959
7080.31,0.10292
7057.17,0.11453
7034.02,0.10774
7010.88,0.10554
6987.74,0.11362
6964.59,0.10694
6941.45,0.12050
6918.3,0.11407
6895.16,0.11041
6872.01,0.11387
6848.87,0.11643
6825.72,0.11524
6802.58,0.11797
6779.43,0.11830
6756.29,0.11880
6733.15,0.11347
6710,0.11995
6686.86,0.11932
6663.71,0.12797
6640.57,0.13065
6617.42,0.12708
6594.28,0.12186
6571.13,0.12276
6547.99,0.12944
6524.84,0.13182
6501.7,0.12845
6478.55,0.13194
6455.41,0.12528
6432.27,0.12780
6409.12,0.12874
6385.98,0.12366
6362.83,0.12402
6339.69,0.13142
6316.54,0.12378
6293.4,0.11961
6270.25,0.11497
6247.11,0.11572
6223.96,0.11256
6200.82,0.09716
6177.68,0.08811
6154.53,0.08329
6131.39,0.07444
6108.24,0.06982
6085.1,0.05779
6061.95,0.05916
6038.81,0.05833
6015.66,0.05630
5992.52,0.05868
5969.37,0.05783
5946.23,0.05553
5923.08,0.05840
5899.94,0.05937
5876.8,0.05853
5853.65,0.06209
5830.51,0.06384
5807.36,0.06258
5784.22,0.06447
5761.07,0.06166
5737.93,0.06802
5714.78,0.07562
5691.64,0.07686
5668.49,0.06868
5645.35,0.07124
5622.21,0.08446
5599.06,0.09104
5575.92,0.08757
5552.77,0.08743
5529.63,0.08640
5506.48,0.08606
5483.34,0.08302
5460.19,0.08540
5437.05,0.08748
5413.9,0.08851
5390.76,0.08575
5367.61,0.08968
5344.47,0.08972
5321.33,0.08804
5298.18,0.08325
5275.04,0.07314
5251.89,0.07318
5228.75,0.08741
5205.6,0.09311
5182.46,0.09198
5159.31,0.09228
5136.17,0.09614
5113.02,0.09852
5089.88,0.09796
5066.74,0.09550
5043.59,0.09755
5020.45,0.09586
4997.3,0.09353
4974.16,0.08986
4951.01,0.08950
4927.87,0.08701
4904.72,0.07827
4881.58,0.07559
4858.43,0.07099
4835.29,0.07008
4812.14,0.07310
4789,0.07219
4765.86,0.06790
4742.71,0.06305
4719.57,0.06144
4696.42,0.06231
4673.28,0.06109
4650.13,0.06200
4626.99,0.06194
4603.84,0.06130
4580.7,0.06247
4557.55,0.06175
4534.41,0.06248
4511.27,0.06207
4488.12,0.06196
4464.98,0.06207
4441.83,0.06166
4418.69,0.06174
4395.54,0.06106
4372.4,0.06214
4349.25,0.06224
4326.11,0.06119
4302.96,0.06152
4279.82,0.06225
4256.67,0.06223
4233.53,0.06174
4210.39,0.06198
4187.24,0.06213
4164.1,0.06225
4140.95,0.06207
4117.81,0.06268
4094.66,0.06263
4071.52,0.06216
4048.37,0.06293
4025.23,0.06207
4002.08,0.06312
3978.94,0.06198
3955.8,0.06260
3932.65,0.06297
3909.51,0.06314
3886.36,0.06266
3863.22,0.06260
3840.07,0.06416
3816.93,0.06247
3793.78,0.06269
3770.64,0.06280
3747.49,0.06317
3724.35,0.06242
3701.2,0.06245
3678.06,0.06350
3654.92,0.06245
3631.77,0.06295
3608.63,0.06251
3585.48,0.06144
3562.34,0.06234
3539.19,0.06225
3516.05,0.06183
3492.9,0.06130
3469.76,0.06164
3446.61,0.06121
3423.47,0.06180
3400.33,0.06139
3377.18,0.06109
3354.04,0.06181
3330.89,0.06143
3307.75,0.06135
3284.6,0.06176
3261.46,0.06135
3238.31,0.06162
3215.17,0.06193
3192.02,0.06154
3168.88,0.06184
3145.73,0.06143
3122.59,0.06182
3099.45,0.06162
3076.3,0.06160
3053.16,0.06113
3030.01,0.06130
3006.87,0.06100
2983.72,0.05995
2960.58,0.06377
2937.43,0.06347
2914.29,0.06333
2891.14,0.06322
2868,0.06413
2844.86,0.06347
2821.71,0.06335
2798.57,0.06271
2775.42,0.06258
2752.28,0.06265
2729.13,0.06264
2705.99,0.06269
2682.84,0.06300
2659.7,0.06301
2636.55,0.06243
2613.41,0.06247
2590.26,0.06228
2567.12,0.06237
2543.98,0.06243
2520.83,0.06184
2497.69,0.06246
2474.54,0.06246
2451.4,0.06231
2428.25,0.06240
2405.11,0.06233
2381.96,0.06243
2358.82,0.06565
2335.67,0.06245
2312.53,0.06253
2289.39,0.06199
2266.24,0.06206
2243.1,0.06176
2219.95,0.06162
2196.81,0.06158
2173.66,0.06156
2150.52,0.06137
2127.37,0.06152
2104.23,0.06089
2081.08,0.06065
2057.94,0.06037
2034.79,0.06102
2011.65,0.06074
1988.51,0.06062
1965.36,0.05976
1942.22,0.05933
1919.07,0.05887
1895.93,0.05819
1872.78,0.05790
1849.64,0.05619
1826.49,0.05356
1803.35,0.04705
1780.2,0.05983
1757.06,0.07944
1733.92,0.06796
1710.77,0.06442
1687.63,0.06224
1664.48,0.06067
1641.34,0.05937
1618.19,0.05832
1595.05,0.05881
1571.9,0.05752
1548.76,0.05485
1525.61,0.04837
1502.47,0.07174
1479.32,0.06320
1456.18,0.05977
1433.04,0.05673
1409.89,0.05465
1386.75,0.05368
1363.6,0.05213
1340.46,0.04774
1317.31,0.04010
1294.17,0.03423
1271.02,0.02240
1247.88,0.09365
1224.73,0.13757
1201.59,0.09022
1178.45,0.11065
1155.3,0.13791
1132.16,0.09919
1109.01,0.08750
1085.87,0.07745
1062.72,0.08451
1039.58,0.07660
1016.43,0.07825
993.288,0.08625
970.144,0.07974
946.999,0.07616
923.855,0.07465
900.71,0.07089
877.565,0.07435
854.421,0.06556
831.276,0.07762
808.132,0.08460
784.987,0.07479
761.843,0.07885
738.698,0.07752
715.553,0.07516
692.409,0.07587
669.264,0.07457
646.12,0.07234
622.975,0.07029
599.83,0.06901

File: PC_IS_S_230508_R7.dpt
7496.92,0.13305
7473.77,0.12120
7450.63,0.11489
7427.48,0.12195
7404.34,0.11850
7381.19,0.10814
7358.05,0.10567
7334.9,0.10402
7311.76,0.10405
7288.62,0.09241
7265.47,0.08853
7242.33,0.09469
7219.18,0.09671
7196.04,0.09587
7172.89,0.10289
7149.75,0.10341
7126.6,0.10118
7103.46,0.10515
7080.31,0.10080
7057.17,0.11522
7034.02,0.10569
7010.88,0.11288
6987.74,0.11721
6964.59,0.10970
6941.45,0.12110
6918.3,0.11517
6895.16,0.11172
6872.01,0.11905
6848.87,0.11535
6825.72,0.11870
6802.58,0.10903
6779.43,0.11283
6756.29,0.11818
6733.15,0.12568
6710,0.12465
6686.86,0.12446
6663.71,0.12468
6640.57,0.12394
6617.42,0.12466
6594.28,0.12430
6571.13,0.13498
6547.99,0.13229
6524.84,0.13141
6501.7,0.13413
6478.55,0.12991
6455.41,0.12809
6432.27,0.12965
6409.12,0.12382
6385.98,0.12857
6362.83,0.12512
6339.69,0.12959
6316.54,0.12459
6293.4,0.12047
6270.25,0.11742
6247.11,0.11621
6223.96,0.10909
6200.82,0.10283
6177.68,0.08737
6154.53,0.08480
6131.39,0.07375
6108.24,0.07140
6085.1,0.06003
6061.95,0.05809
6038.81,0.05491
6015.66,0.05775
5992.52,0.05699
5969.37,0.05654
5946.23,0.05604
5923.08,0.05543
5899.94,0.05485
5876.8,0.05809
5853.65,0.06236
5830.51,0.06173
5807.36,0.06420
5784.22,0.06100
5761.07,0.06011
5737.93,0.06349
5714.78,0.07632
5691.64,0.07647
5668.49,0.07126
5645.35,0.07498
5622.21,0.08292
5599.06,0.08735
5575.92,0.08669
5552.77,0.08653
5529.63,0.08603
5506.48,0.08780
5483.34,0.08389
5460.19,0.08366
5437.05,0.08608
5413.9,0.08966
5390.76,0.08830
5367.61,0.08965
5344.47,0.08490
5321.33,0.08748
5298.18,0.08442
5275.04,0.07212
5251.89,0.07101
5228.75,0.08529
5205.6,0.09227
5182.46,0.09204
5159.31,0.09300
5136.17,0.09597
5113.02,0.09911
5089.88,0.09795
5066.74,0.09592
5043.59,0.09775
5020.45,0.09577
4997.3,0.09294
4974.16,0.09267
4951.01,0.08927
4927.87,0.08681
4904.72,0.07983
4881.58,0.07499
4858.43,0.07265
4835.29,0.07061
4812.14,0.07228
4789,0.07207
4765.86,0.06775
4742.71,0.06363
4719.57,0.06038
4696.42,0.06176
4673.28,0.06081
4650.13,0.06221
4626.99,0.06119
4603.84,0.06148
4580.7,0.06165
4557.55,0.06198
4534.41,0.06238
4511.27,0.06304
4488.12,0.06165
4464.98,0.06193
4441.83,0.06161
4418.69,0.06190
4395.54,0.06201
4372.4,0.06154
4349.25,0.06167
4326.11,0.06274
4302.96,0.06172
4279.82,0.06175
4256.67,0.06180
4233.53,0.06220
4210.39,0.06333
4187.24,0.06255
4164.1,0.06220
4140.95,0.06232
4117.81,0.06212
4094.66,0.06212
4071.52,0.06251
4048.37,0.06242
4025.23,0.06252
4002.08,0.06261
3978.94,0.06236
3955.8,0.06200
3932.65,0.06259
3909.51,0.06276
3886.36,0.06339
3863.22,0.06281
3840.07,0.06303
3816.93,0.06252
3793.78,0.06251
3770.64,0.06317
3747.49,0.06179
3724.35,0.06252
3701.2,0.06260
3678.06,0.06409
3654.92,0.06281
3631.77,0.06265
3608.63,0.06277
3585.48,0.06172
3562.34,0.06123
3539.19,0.06187
3516.05,0.06164
3492.9,0.06161
3469.76,0.06269
3446.61,0.06203
3423.47,0.06234
3400.33,0.06140
3377.18,0.06090
3354.04,0.06094
3330.89,0.06134
3307.75,0.06074
3284.6,0.06103
3261.46,0.06196
3238.31,0.06207
3215.17,0.06176
3192.02,0.06225
3168.88,0.06172
3145.73,0.06226
3122.59,0.06165
3099.45,0.06191
3076.3,0.06140
3053.16,0.06149
3030.01,0.06204
3006.87,0.06140
2983.72,0.05954
2960.58,0.06401
2937.43,0.06399
2914.29,0.06428
2891.14,0.06274
2868,0.06348
2844.86,0.06354
2821.71,0.06292
2798.57,0.06294
2775.42,0.06258
2752.28,0.06292
2729.13,0.06296
2705.99,0.06300
2682.84,0.06292
2659.7,0.06292
2636.55,0.06274
2613.41,0.06280
2590.26,0.06260
2567.12,0.06255
2543.98,0.06255
2520.83,0.06239
2497.69,0.06257
2474.54,0.06253
2451.4,0.06240
2428.25,0.06252
2405.11,0.06213
2381.96,0.06341
2358.82,0.06172
2335.67,0.06329
2312.53,0.06214
2289.39,0.06212
2266.24,0.06214
2243.1,0.06190
2219.95,0.06170
2196.81,0.06188
2173.66,0.06153
2150.52,0.06137
2127.37,0.06144
2104.23,0.06139
2081.08,0.06085
2057.94,0.06100
2034.79,0.06064
2011.65,0.06060
1988.51,0.06076
1965.36,0.06026
1942.22,0.05994
1919.07,0.05881
1895.93,0.05875
1872.78,0.05795
1849.64,0.05653
1826.49,0.05387
1803.35,0.04688
1780.2,0.05920
1757.06,0.07988
1733.92,0.06821
1710.77,0.06465
1687.63,0.06231
1664.48,0.06094
1641.34,0.05999
1618.19,0.05854
1595.05,0.05877
1571.9,0.05776
1548.76,0.05492
1525.61,0.05033
1502.47,0.07189
1479.32,0.06324
1456.18,0.05980
1433.04,0.05694
1409.89,0.05456
1386.75,0.05316
1363.6,0.05225
1340.46,0.04806
1317.31,0.04023
1294.17,0.03460
1271.02,0.02224
1247.88,0.09367
1224.73,0.13750
1201.59,0.08936
1178.45,0.11139
1155.3,0.13840
1132.16,0.09966
1109.01,0.08743
1085.87,0.07748
1062.72,0.08392
1039.58,0.07684
1016.43,0.07830
993.288,0.08656
970.144,0.07953
946.999,0.07746
923.855,0.07442
900.71,0.07103
877.565,0.07464
854.421,0.06666
831.276,0.07776
808.132,0.08379
784.987,0.07431
761.843,0.07972
738.698,0.07747
715.553,0.07572
692.409,0.07686
669.264,0.07564
646.12,0.07158
622.975,0.07055
599.83,0.06652

File: PC_IS_T_230508_R2.dpt
7496.92,0.01656
7473.77,0.02243
7450.63,0.02644
7427.48,0.03024
7404.34,0.03183
7381.19,0.02579
7358.05,0.03408
7334.9,0.01760
7311.76,0.02941
7288.62,0.01831
7265.47,0.03059
7242.33,0.02932
7219.18,0.02034
7196.04,0.03361
7172.89,0.02154
7149.75,0.01925
7126.6,0.02403
7103.46,0.02454
7080.31,0.03090
7057.17,0.02374
7034.02,0.02563
7010.88,0.02600
6987.74,0.01936
6964.59,0.02751
6941.45,0.02566
6918.3,0.02996
6895.16,0.02383
6872.01,0.02309
6848.87,0.02049
6825.72,0.02569
6802.58,0.02551
6779.43,0.02409
6756.29,0.02470
6733.15,0.02477
6710,0.02676
6686.86,0.01983
6663.71,0.02501
6640.57,0.02607
6617.42,0.02451
6594.28,0.02368
6571.13,0.02470
6547.99,0.02404
6524.84,0.02910
6501.7,0.02462
6478.55,0.02239
6455.41,0.02952
6432.27,0.02646
6409.12,0.02188
6385.98,0.01902
6362.83,0.02063
6339.69,0.02430
6316.54,0.02301
6293.4,0.02374
6270.25,0.02673
6247.11,0.02134
6223.96,0.02263
6200.82,0.01956
6177.68,0.02517
6154.53,0.02289
6131.39,0.02521
6108.24,0.02319
6085.1,0.02389
6061.95,0.02526
6038.81,0.02606
6015.66,0.02345
5992.52,0.02563
5969.37,0.02049
5946.23,0.02557
5923.08,0.02423
5899.94,0.02023
5876.8,0.02332
5853.65,0.02258
5830.51,0.01998
5807.36,0.02362
5784.22,0.02233
5761.07,0.02319
5737.93,0.02248
5714.78,0.02308
5691.64,0.02499
5668.49,0.02227
5645.35,0.02503
5622.21,0.02169
5599.06,0.02411
5575.92,0.02489
5552.77,0.02272
5529.63,0.02269
5506.48,0.02297
5483.34,0.02293
5460.19,0.02424
5437.05,0.02183
5413.9,0.02325
5390.76,0.02165
5367.61,0.02173
5344.47,0.02128
5321.33,0.02187
5298.18,0.02357
5275.04,0.02288
5251.89,0.02316
5228.75,0.02250
5205.6,0.02357
5182.46,0.02218
5159.31,0.02429
5136.17,0.02338
5113.02,0.02407
5089.88,0.02394
5066.74,0.02253
5043.59,0.02413
5020.45,0.02391
4997.3,0.02306
4974.16,0.02494
4951.01,0.02458
4927.87,0.02426
4904.72,0.02386
4881.58,0.02433
4858.43,0.02348
4835.29,0.02314
4812.14,0.02280
4789,0.02260
4765.86,0.02414
4742.71,0.02338
4719.57,0.02393
4696.42,0.02319
4673.28,0.02503
4650.13,0.02356
4626.99,0.02307
4603.84,0.02247
4580.7,0.02397
4557.55,0.02294
4534.41,0.02343
4511.27,0.02344
4488.12,0.02314
4464.98,0.02302
4441.83,0.02248
4418.69,0.02300
4395.54,0.02330
4372.4,0.02344
4349.25,0.02404
4326.11,0.02388
4302.96,0.02357
4279.82,0.02296
4256.67,0.02346
4233.53,0.02328
4210.39,0.02419
4187.24,0.02358
4164.1,0.02424
4140.95,0.02335
4117.81,0.02399
4094.66,0.02406
4071.52,0.02426
4048.37,0.02357
4025.23,0.02400
4002.08,0.02310
3978.94,0.02343
3955.8,0.02414
3932.65,0.02389
3909.51,0.02443
3886.36,0.02312
3863.22,0.02542
3840.07,0.02359
3816.93,0.02446
3793.78,0.02351
3770.64,0.02356
3747.49,0.02417
3724.35,0.02442
3701.2,0.02414
3678.06,0.02471
3654.92,0.02344
3631.77,0.02284
3608.63,0.02214
3585.48,0.02165
3562.34,0.02202
3539.19,0.02189
3516.05,0.02206
3492.9,0.02156
3469.76,0.02183
3446.61,0.02192
3423.47,0.02152
3400.33,0.02127
3377.18,0.02153
3354.04,0.02122
3330.89,0.02192
3307.75,0.02085
3284.6,0.02159
3261.46,0.02162
3238.31,0.02131
3215.17,0.02173
3192.02,0.02159
3168.88,0.02217
3145.73,0.02210
3122.59,0.02265
3099.45,0.02212
3076.3,0.02206
3053.16,0.02181
3030.01,0.02207
3006.87,0.02159
2983.72,0.02149
2960.58,0.02124
2937.43,0.02029
2914.29,0.02237
2891.14,0.02168
2868,0.02167
2844.86,0.02240
2821.71,0.02247
2798.57,0.02225
2775.42,0.02304
2752.28,0.02283
2729.13,0.02259
2705.99,0.02291
2682.84,0.02263
2659.7,0.02300
2636.55,0.02254
2613.41,0.02226
2590.26,0.02279
2567.12,0.02256
2543.98,0.02307
2520.83,0.02312
2497.69,0.02265
2474.54,0.02314
2451.4,0.02284
2428.25,0.02289
2405.11,0.02255
2381.96,0.02305
2358.82,0.02277
2335.67,0.02366
2312.53,0.02275
2289.39,0.02285
2266.24,0.02267
2243.1,0.02234
2219.95,0.02290
2196.81,0.02273
2173.66,0.02274
2150.52,0.02234
2127.37,0.02236
2104.23,0.02256
2081.08,0.02262
2057.94,0.02250
2034.79,0.02274
2011.65,0.02248
1988.51,0.02243
1965.36,0.02201
1942.22,0.02237
1919.07,0.02226
1895.93,0.02203
1872.78,0.02230
1849.64,0.02201
1826.49,0.02179
1803.35,0.02164
1780.2,0.02099
1757.06,0.01879
1733.92,0.02047
1710.77,0.02134
1687.63,0.02037
1664.48,0.01986
1641.34,0.01997
1618.19,0.01988
1595.05,0.02031
1571.9,0.01997
1548.76,0.01996
1525.61,0.01973
1502.47,0.02025
1479.32,0.01974
1456.18,0.01938
1433.04,0.02008
1409.89,0.01908
1386.75,0.01934
1363.6,0.01964
1340.46,0.01876
1317.31,0.01838
1294.17,0.01896
1271.02,0.02028
1247.88,0.02154
1224.73,0.02024
1201.59,0.01951
1178.45,0.01951
1155.3,0.01855
1132.16,0.01874
1109.01,0.01983
1085.87,0.01932
1062.72,0.02167
1039.58,0.02096
1016.43,0.02055
993.288,0.02185
970.144,0.02161
946.999,0.02091
923.855,0.02091
900.71,0.02060
877.565,0.02079
854.421,0.01973
831.276,0.02020
808.132,0.02042
784.987,0.01968
761.843,0.01854
738.698,0.01857
715.553,0.01957
692.409,0.01864
669.264,0.01759
646.12,0.01751
622.975,0.01740
599.83,0.01913

File: PC_IS_T_230508_R3.dpt
7496.92,0.01602
7473.77,0.02769
7450.63,0.01495
7427.48,0.02598
7404.34,0.03055
7381.19,0.02706
7358.05,0.04960
7334.9,0.02643
7311.76,0.02769
7288.62,0.01700
7265.47,0.02212
7242.33,0.01565
7219.18,0.02227
7196.04,0.00948
7172.89,0.02306
7149.75,0.01848
7126.6,0.02451
7103.46,0.02842
7080.31,0.03073
7057.17,0.02577
7034.02,0.03014
7010.88,0.03072
6987.74,0.02205
6964.59,0.02308
6941.45,0.02076
6918.3,0.02811
6895.16,0.02900
6872.01,0.02617
6848.87,0.02967
6825.72,0.02494
6802.58,0.02941
6779.43,0.02583
6756.29,0.03123
6733.15,0.02858
6710,0.03116
6686.86,0.02514
6663.71,0.02431
6640.57,0.01836
6617.42,0.02389
6594.28,0.02104
6571.13,0.02291
6547.99,0.02493
6524.84,0.02018
6501.7,0.02037
6478.55,0.02126
6455.41,0.02705
6432.27,0.02002
6409.12,0.02495
6385.98,0.02662
6362.83,0.02297
6339.69,0.01788
6316.54,0.02019
6293.4,0.02788
6270.25,0.02211
6247.11,0.02216
6223.96,0.02385
6200.82,0.02154
6177.68,0.02092
6154.53,0.02592
6131.39,0.02287
6108.24,0.02285
6085.1,0.02262
6061.95,0.02411
6038.81,0.02521
6015.66,0.02296
5992.52,0.02250
5969.37,0.02242
5946.23,0.02294
5923.08,0.02512
5899.94,0.02189
5876.8,0.02248
5853.65,0.02400
5830.51,0.02348
5807.36,0.02242
5784.22,0.02226
5761.07,0.02247
5737.93,0.02388
5714.78,0.02145
5691.64,0.02345
5668.49,0.02305
5645.35,0.02328
5622.21,0.02193
5599.06,0.01963
5575.92,0.02460
5552.77,0.02432
5529.63,0.02293
5506.48,0.02437
5483.34,0.02377
5460.19,0.02549
5437.05,0.02430
5413.9,0.02494
5390.76,0.02316
5367.61,0.02520
5344.47,0.02298
5321.33,0.02254
5298.18,0.02433
5275.04,0.02332
5251.89,0.02434
5228.75,0.02404
5205.6,0.02307
5182.46,0.02173
5159.31,0.02343
5136.17,0.02393
5113.02,0.02421
5089.88,0.02300
5066.74,0.02519
5043.59,0.02440
5020.45,0.02379
4997.3,0.02413
4974.16,0.02441
4951.01,0.02346
4927.87,0.02483
4904.72,0.02358
4881.58,0.02393
4858.43,0.02375
4835.29,0.02377
4812.14,0.02306
4789,0.02416
4765.86,0.02331
4742.71,0.02375
4719.57,0.02324
4696.42,0.02402
4673.28,0.02426
4650.13,0.02430
4626.99,0.02486
4603.84,0.02335
4580.7,0.02369
4557.55,0.02198
4534.41,0.02362
4511.27,0.02395
4488.12,0.02419
4464.98,0.02358
4441.83,0.02386
4418.69,0.02431
4395.54,0.02318
4372.4,0.02410
4349.25,0.02322
4326.11,0.02359
4302.96,0.02321
4279.82,0.02378
4256.67,0.02414
4233.53,0.02476
4210.39,0.02402
4187.24,0.02391
4164.1,0.02366
4140.95,0.02389
4117.81,0.02427
4094.66,0.02403
4071.52,0.02423
4048.37,0.02417
4025.23,0.02391
4002.08,0.02361
3978.94,0.02351
3955.8,0.02415
3932.65,0.02422
3909.51,0.02451
3886.36,0.02413
3863.22,0.02413
3840.07,0.02400
3816.93,0.02418
3793.78,0.02477
3770.64,0.02497
3747.49,0.02278
3724.35,0.02504
3701.2,0.02396
3678.06,0.02334
3654.92,0.02299
3631.77,0.02356
3608.63,0.02264
3585.48,0.02228
3562.34,0.02207
3539.19,0.02293
3516.05,0.02206
3492.9,0.02203
3469.76,0.02196
3446.61,0.02079
3423.47,0.02173
3400.33,0.02285
3377.18,0.02173
3354.04,0.02158
3330.89,0.02128
3307.75,0.02164
3284.6,0.02229
3261.46,0.02254
3238.31,0.02182
3215.17,0.02289
3192.02,0.02261
3168.88,0.02322
3145.73,0.02272
3122.59,0.02291
3099.45,0.02264
3076.3,0.02232
3053.16,0.02224
3030.01,0.02257
3006.87,0.02245
2983.72,0.02207
2960.58,0.02139
2937.43,0.02210
2914.29,0.02213
2891.14,0.02303
2868,0.02210
2844.86,0.02249
2821.71,0.02273
2798.57,0.02337
2775.42,0.02344
2752.28,0.02317
2729.13,0.02327
2705.99,0.02293
2682.84,0.02297
2659.7,0.02290
2636.55,0.02319
2613.41,0.02359
2590.26,0.02339
2567.12,0.02294
2543.98,0.02324
2520.83,0.02300
2497.69,0.02363
2474.54,0.02326
2451.4,0.02321
2428.25,0.02374
2405.11,0.02307
2381.96,0.02329
2358.82,0.02248
2335.67,0.02166
2312.53,0.02377
2289.39,0.02312
2266.24,0.02306
2243.1,0.02313
2219.95,0.02323
2196.81,0.02298
2173.66,0.02267
2150.52,0.02276
2127.37,0.02309
2104.23,0.02292
2081.08,0.02299
2057.94,0.02262
2034.79,0.02297
2011.65,0.02282
1988.51,0.02300
1965.36,0.02273
1942.22,0.02295
1919.07,0.02288
1895.93,0.02280
1872.78,0.02227
1849.64,0.02242
1826.49,0.02225
1803.35,0.02144
1780.2,0.02106
1757.06,0.01991
1733.92,0.02190
1710.77,0.02213
1687.63,0.02049
1664.48,0.02075
1641.34,0.02067
1618.19,0.02078
1595.05,0.02061
1571.9,0.02059
1548.76,0.02047
1525.61,0.02059
1502.47,0.02051
1479.32,0.02065
1456.18,0.01947
1433.04,0.02038
1409.89,0.01967
1386.75,0.01980
1363.6,0.02002
1340.46,0.01923
1317.31,0.01857
1294.17,0.01917
1271.02,0.02084
1247.88,0.02169
1224.73,0.02095
1201.59,0.01977
1178.45,0.01925
1155.3,0.01920
1132.16,0.01955
1109.01,0.02035
1085.87,0.02029
1062.72,0.02153
1039.58,0.02138
1016.43,0.02129
993.288,0.02269
970.144,0.02219
946.999,0.02230
923.855,0.02132
900.71,0.02059
877.565,0.02097
854.421,0.02053
831.276,0.02063
808.132,0.02017
784.987,0.01967
761.843,0.01908
738.698,0.01940
715.553,0.01981
692.409,0.01810
669.264,0.01870
646.12,0.01890
622.975,0.01911
599.83,0.01600