Folder: fsri_materials_database/01_Data/PC/FTIR/IS (part 5)

File: PC_2.93_T_IS_230516_R1.dpt
7496.92,0.07180
7473.77,0.06352
7450.63,0.05690
7427.48,0.05136
7404.34,0.05487
7381.19,0.06518
7358.05,0.06610
7334.9,0.03756
7311.76,0.04969
7288.62,0.04719
7265.47,0.03512
7242.33,0.03713
7219.18,0.03124
7196.04,0.02825
7172.89,0.03609
7149.75,0.06006
7126.6,0.01597
7103.46,0.06329
7080.31,0.03914
7057.17,0.01917
7034.02,0.04937
7010.88,0.04960
6987.74,0.05137
6964.59,0.05493
6941.45,0.03582
6918.3,0.04716
6895.16,0.04335
6872.01,0.04436
6848.87,0.03891
6825.72,0.05283
6802.58,0.04506
6779.43,0.02393
6756.29,0.04445
6733.15,0.03274
6710,0.02421
6686.86,0.04093
6663.71,0.04769
6640.57,0.03830
6617.42,0.04938
6594.28,0.03394
6571.13,0.04557
6547.99,0.04031
6524.84,0.04553
6501.7,0.03539
6478.55,0.03272
6455.41,0.03596
6432.27,0.02003
6409.12,0.03923
6385.98,0.03970
6362.83,0.02940
6339.69,0.03153
6316.54,0.03304
6293.4,0.03468
6270.25,0.03297
6247.11,0.03529
6223.96,0.02254
6200.82,0.03613
6177.68,0.02723
6154.53,0.03234
6131.39,0.03020
6108.24,0.02560
6085.1,0.03277
6061.95,0.02719
6038.81,0.03106
6015.66,0.02552
5992.52,0.03093
5969.37,0.03030
5946.23,0.02594
5923.08,0.02959
5899.94,0.02680
5876.8,0.03023
5853.65,0.02396
5830.51,0.02781
5807.36,0.02714
5784.22,0.02712
5761.07,0.02520
5737.93,0.03182
5714.78,0.02699
5691.64,0.02536
5668.49,0.02927
5645.35,0.02927
5622.21,0.02471
5599.06,0.02988
5575.92,0.02801
5552.77,0.02532
5529.63,0.02656
5506.48,0.02605
5483.34,0.02679
5460.19,0.02600
5437.05,0.02644
5413.9,0.02846
5390.76,0.02807
5367.61,0.02694
5344.47,0.02411
5321.33,0.02776
5298.18,0.02413
5275.04,0.02683
5251.89,0.02475
5228.75,0.02766
5205.6,0.02651
5182.46,0.02633
5159.31,0.02487
5136.17,0.02356
5113.02,0.02645
5089.88,0.02543
5066.74,0.02508
5043.59,0.02265
5020.45,0.02505
4997.3,0.02294
4974.16,0.02500
4951.01,0.02438
4927.87,0.02494
4904.72,0.02341
4881.58,0.02448
4858.43,0.02538
4835.29,0.02479
4812.14,0.02277
4789,0.02454
4765.86,0.02503
4742.71,0.02518
4719.57,0.02464
4696.42,0.02439
4673.28,0.02445
4650.13,0.02403
4626.99,0.02377
4603.84,0.02336
4580.7,0.02335
4557.55,0.02332
4534.41,0.02418
4511.27,0.02291
4488.12,0.02319
4464.98,0.02361
4441.83,0.02506
4418.69,0.02317
4395.54,0.02288
4372.4,0.02300
4349.25,0.02308
4326.11,0.02379
4302.96,0.02383
4279.82,0.02344
4256.67,0.02288
4233.53,0.02383
4210.39,0.02385
4187.24,0.02246
4164.1,0.02329
4140.95,0.02370
4117.81,0.02251
4094.66,0.02448
4071.52,0.02373
4048.37,0.02379
4025.23,0.02374
4002.08,0.02388
3978.94,0.02369
3955.8,0.02421
3932.65,0.02301
3909.51,0.02383
3886.36,0.02349
3863.22,0.02302
3840.07,0.02442
3816.93,0.02397
3793.78,0.02393
3770.64,0.02374
3747.49,0.02231
3724.35,0.02336
3701.2,0.02422
3678.06,0.02478
3654.92,0.02286
3631.77,0.02299
3608.63,0.02366
3585.48,0.02178
3562.34,0.02196
3539.19,0.02225
3516.05,0.02245
3492.9,0.02226
3469.76,0.02117
3446.61,0.02071
3423.47,0.02160
3400.33,0.02115
3377.18,0.02142
3354.04,0.02181
3330.89,0.02217
3307.75,0.02133
3284.6,0.02201
3261.46,0.02102
3238.31,0.02135
3215.17,0.02204
3192.02,0.02218
3168.88,0.02212
3145.73,0.02202
3122.59,0.02205
3099.45,0.02163
3076.3,0.02204
3053.16,0.02148
3030.01,0.02206
3006.87,0.02229
2983.72,0.02133
2960.58,0.02117
2937.43,0.02073
2914.29,0.02180
2891.14,0.02133
2868,0.02150
2844.86,0.02201
2821.71,0.02268
2798.57,0.02220
2775.42,0.02243
2752.28,0.02260
2729.13,0.02265
2705.99,0.02291
2682.84,0.02255
2659.7,0.02299
2636.55,0.02280
2613.41,0.02272
2590.26,0.02309
2567.12,0.02293
2543.98,0.02304
2520.83,0.02310
2497.69,0.02293
2474.54,0.02279
2451.4,0.02285
2428.25,0.02289
2405.11,0.02298
2381.96,0.02313
2358.82,0.02347
2335.67,0.02340
2312.53,0.02301
2289.39,0.02291
2266.24,0.02320
2243.1,0.02302
2219.95,0.02251
2196.81,0.02284
2173.66,0.02265
2150.52,0.02278
2127.37,0.02283
2104.23,0.02280
2081.08,0.02290
2057.94,0.02298
2034.79,0.02285
2011.65,0.02265
1988.51,0.02306
1965.36,0.02275
1942.22,0.02221
1919.07,0.02258
1895.93,0.02281
1872.78,0.02232
1849.64,0.02224
1826.49,0.02246
1803.35,0.02200
1780.2,0.02138
1757.06,0.01997
1733.92,0.02108
1710.77,0.02269
1687.63,0.02132
1664.48,0.02087
1641.34,0.02076
1618.19,0.02085
1595.05,0.02108
1571.9,0.02001
1548.76,0.02044
1525.61,0.02111
1502.47,0.02074
1479.32,0.02043
1456.18,0.02085
1433.04,0.02030
1409.89,0.02027
1386.75,0.01985
1363.6,0.02018
1340.46,0.01949
1317.31,0.01897
1294.17,0.01951
1271.02,0.02092
1247.88,0.02162
1224.73,0.02084
1201.59,0.02080
1178.45,0.01979
1155.3,0.01900
1132.16,0.01962
1109.01,0.02046
1085.87,0.02070
1062.72,0.02144
1039.58,0.02118
1016.43,0.02174
993.288,0.02282
970.144,0.02235
946.999,0.02179
923.855,0.02153
900.71,0.02115
877.565,0.02106
854.421,0.02047
831.276,0.02013
808.132,0.02073
784.987,0.02025
761.843,0.01958
738.698,0.01925
715.553,0.01962
692.409,0.01902
669.264,0.01895
646.12,0.01949
622.975,0.01954
599.83,0.01854

File: PC_2.93_T_IS_230516_R3.dpt
7496.92,0.07358
7473.77,0.07765
7450.63,0.07743
7427.48,0.02000
7404.34,0.04092
7381.19,0.04961
7358.05,0.06348
7334.9,0.03916
7311.76,0.02657
7288.62,0.04841
7265.47,0.04092
7242.33,0.04953
7219.18,0.07981
7196.04,0.02336
7172.89,0.05621
7149.75,0.05240
7126.6,0.06384
7103.46,0.02216
7080.31,0.06831
7057.17,0.03064
7034.02,0.04808
7010.88,0.04024
6987.74,0.04488
6964.59,0.04374
6941.45,0.04980
6918.3,0.03969
6895.16,0.03658
6872.01,0.05293
6848.87,0.04895
6825.72,0.03401
6802.58,0.02966
6779.43,0.03321
6756.29,0.04541
6733.15,0.03573
6710,0.03284
6686.86,0.05742
6663.71,0.03387
6640.57,0.04667
6617.42,0.03464
6594.28,0.03626
6571.13,0.05016
6547.99,0.04198
6524.84,0.04506
6501.7,0.03523
6478.55,0.03556
6455.41,0.04260
6432.27,0.03140
6409.12,0.03621
6385.98,0.03310
6362.83,0.02957
6339.69,0.02826
6316.54,0.03099
6293.4,0.04109
6270.25,0.03897
6247.11,0.02278
6223.96,0.03314
6200.82,0.02596
6177.68,0.03435
6154.53,0.03703
6131.39,0.02688
6108.24,0.03413
6085.1,0.03079
6061.95,0.03376
6038.81,0.02512
6015.66,0.03179
5992.52,0.02859
5969.37,0.03124
5946.23,0.03388
5923.08,0.03516
5899.94,0.01981
5876.8,0.03148
5853.65,0.03017
5830.51,0.02870
5807.36,0.02733
5784.22,0.02915
5761.07,0.03008
5737.93,0.02926
5714.78,0.03072
5691.64,0.02901
5668.49,0.02900
5645.35,0.03074
5622.21,0.02819
5599.06,0.02400
5575.92,0.02599
5552.77,0.02521
5529.63,0.02449
5506.48,0.02948
5483.34,0.02715
5460.19,0.02066
5437.05,0.02593
5413.9,0.02692
5390.76,0.02715
5367.61,0.02490
5344.47,0.02572
5321.33,0.02419
5298.18,0.02636
5275.04,0.02374
5251.89,0.02423
5228.75,0.02350
5205.6,0.02627
5182.46,0.02792
5159.31,0.02519
5136.17,0.02584
5113.02,0.02402
5089.88,0.02291
5066.74,0.02397
5043.59,0.02569
5020.45,0.02382
4997.3,0.02451
4974.16,0.02436
4951.01,0.02407
4927.87,0.02320
4904.72,0.02522
4881.58,0.02395
4858.43,0.02406
4835.29,0.02499
4812.14,0.02403
4789,0.02271
4765.86,0.02306
4742.71,0.02458
4719.57,0.02202
4696.42,0.02532
4673.28,0.02611
4650.13,0.02354
4626.99,0.02266
4603.84,0.02303
4580.7,0.02299
4557.55,0.02266
4534.41,0.02506
4511.27,0.02276
4488.12,0.02428
4464.98,0.02293
4441.83,0.02321
4418.69,0.02274
4395.54,0.02314
4372.4,0.02298
4349.25,0.02200
4326.11,0.02310
4302.96,0.02251
4279.82,0.02318
4256.67,0.02300
4233.53,0.02306
4210.39,0.02405
4187.24,0.02288
4164.1,0.02282
4140.95,0.02357
4117.81,0.02308
4094.66,0.02248
4071.52,0.02281
4048.37,0.02263
4025.23,0.02249
4002.08,0.02288
3978.94,0.02248
3955.8,0.02242
3932.65,0.02414
3909.51,0.02396
3886.36,0.02359
3863.22,0.02315
3840.07,0.02220
3816.93,0.02302
3793.78,0.02299
3770.64,0.02276
3747.49,0.02449
3724.35,0.02294
3701.2,0.02368
3678.06,0.02428
3654.92,0.02188
3631.77,0.02215
3608.63,0.02305
3585.48,0.02212
3562.34,0.02184
3539.19,0.02151
3516.05,0.02212
3492.9,0.02234
3469.76,0.02115
3446.61,0.02159
3423.47,0.02107
3400.33,0.02118
3377.18,0.02158
3354.04,0.02066
3330.89,0.02102
3307.75,0.02098
3284.6,0.02090
3261.46,0.02164
3238.31,0.02149
3215.17,0.02109
3192.02,0.02172
3168.88,0.02180
3145.73,0.02201
3122.59,0.02253
3099.45,0.02244
3076.3,0.02210
3053.16,0.02206
3030.01,0.02182
3006.87,0.02183
2983.72,0.02120
2960.58,0.02121
2937.43,0.02108
2914.29,0.02165
2891.14,0.02154
2868,0.02117
2844.86,0.02106
2821.71,0.02167
2798.57,0.02206
2775.42,0.02226
2752.28,0.02278
2729.13,0.02217
2705.99,0.02216
2682.84,0.02239
2659.7,0.02266
2636.55,0.02220
2613.41,0.02251
2590.26,0.02237
2567.12,0.02221
2543.98,0.02245
2520.83,0.02264
2497.69,0.02227
2474.54,0.02253
2451.4,0.02282
2428.25,0.02260
2405.11,0.02240
2381.96,0.02297
2358.82,0.02427
2335.67,0.02405
2312.53,0.02334
2289.39,0.02263
2266.24,0.02284
2243.1,0.02240
2219.95,0.02243
2196.81,0.02276
2173.66,0.02251
2150.52,0.02281
2127.37,0.02283
2104.23,0.02257
2081.08,0.02237
2057.94,0.02250
2034.79,0.02250
2011.65,0.02259
1988.51,0.02278
1965.36,0.02232
1942.22,0.02231
1919.07,0.02244
1895.93,0.02225
1872.78,0.02203
1849.64,0.02212
1826.49,0.02195
1803.35,0.02177
1780.2,0.02119
1757.06,0.01937
1733.92,0.02129
1710.77,0.02210
1687.63,0.02096
1664.48,0.02006
1641.34,0.02058
1618.19,0.02087
1595.05,0.02071
1571.9,0.02048
1548.76,0.02023
1525.61,0.02011
1502.47,0.02064
1479.32,0.02052
1456.18,0.02052
1433.04,0.01990
1409.89,0.01946
1386.75,0.01979
1363.6,0.01979
1340.46,0.01945
1317.31,0.01849
1294.17,0.01885
1271.02,0.02071
1247.88,0.02161
1224.73,0.02113
1201.59,0.01997
1178.45,0.01963
1155.3,0.01911
1132.16,0.01972
1109.01,0.02006
1085.87,0.01927
1062.72,0.02156
1039.58,0.02164
1016.43,0.02141
993.288,0.02251
970.144,0.02187
946.999,0.02178
923.855,0.02097
900.71,0.02091
877.565,0.02089
854.421,0.02038
831.276,0.02036
808.132,0.02061
784.987,0.02039
761.843,0.01983
738.698,0.02017
715.553,0.01988
692.409,0.01879
669.264,0.01960
646.12,0.01557
622.975,0.01901
599.83,0.01725

File: PC_2.93_Trans_S_IS_230516_R1.dpt
7496.92,0.88323
7473.77,0.85342
7450.63,0.88038
7427.48,0.85493
7404.34,0.81987
7381.19,0.83965
7358.05,0.81601
7334.9,0.77020
7311.76,0.77803
7288.62,0.78643
7265.47,0.76798
7242.33,0.76271
7219.18,0.72813
7196.04,0.76179
7172.89,0.74838
7149.75,0.75774
7126.6,0.76263
7103.46,0.77207
7080.31,0.80636
7057.17,0.79903
7034.02,0.82304
7010.88,0.81393
6987.74,0.79667
6964.59,0.81841
6941.45,0.81676
6918.3,0.81820
6895.16,0.82826
6872.01,0.82548
6848.87,0.82645
6825.72,0.84012
6802.58,0.83468
6779.43,0.84846
6756.29,0.85725
6733.15,0.85791
6710,0.85176
6686.86,0.85704
6663.71,0.85713
6640.57,0.86101
6617.42,0.86163
6594.28,0.86136
6571.13,0.88053
6547.99,0.87558
6524.84,0.87686
6501.7,0.87858
6478.55,0.87964
6455.41,0.86886
6432.27,0.87146
6409.12,0.86683
6385.98,0.87546
6362.83,0.85704
6339.69,0.86933
6316.54,0.86302
6293.4,0.85154
6270.25,0.84165
6247.11,0.82809
6223.96,0.79583
6200.82,0.76120
6177.68,0.70482
6154.53,0.67447
6131.39,0.60713
6108.24,0.55212
6085.1,0.41103
6061.95,0.31318
6038.81,0.21110
6015.66,0.08599
5992.52,0.04519
5969.37,0.15361
5946.23,0.17878
5923.08,0.15738
5899.94,0.20334
5876.8,0.27452
5853.65,0.41724
5830.51,0.45089
5807.36,0.46310
5784.22,0.43139
5761.07,0.39385
5737.93,0.49970
5714.78,0.59872
5691.64,0.62050
5668.49,0.55159
5645.35,0.58408
5622.21,0.66509
5599.06,0.68812
5575.92,0.68029
5552.77,0.67260
5529.63,0.67173
5506.48,0.67003
5483.34,0.65802
5460.19,0.65179
5437.05,0.67477
5413.9,0.66682
5390.76,0.67800
5367.61,0.68922
5344.47,0.66665
5321.33,0.67348
5298.18,0.64966
5275.04,0.54548
5251.89,0.54793
5228.75,0.66362
5205.6,0.69500
5182.46,0.69624
5159.31,0.69915
5136.17,0.71911
5113.02,0.72554
5089.88,0.71935
5066.74,0.71473
5043.59,0.72231
5020.45,0.70930
4997.3,0.69689
4974.16,0.68042
4951.01,0.67607
4927.87,0.66074
4904.72,0.59830
4881.58,0.56895
4858.43,0.52665
4835.29,0.50844
4812.14,0.53628
4789,0.52092
4765.86,0.45924
4742.71,0.36140
4719.57,0.18255
4696.42,0.03385
4673.28,0.02310
4650.13,0.04179
4626.99,0.02345
4603.84,0.18137
4580.7,0.12217
4557.55,0.22041
4534.41,0.27836
4511.27,0.28131
4488.12,0.19121
4464.98,0.16274
4441.83,0.08467
4418.69,0.01679
4395.54,0.01354
4372.4,0.00960
4349.25,0.00363
4326.11,0.00179
4302.96,0.00336
4279.82,0.00710
4256.67,0.01475
4233.53,0.01366
4210.39,0.00963
4187.24,0.00722
4164.1,0.00756
4140.95,0.02316
4117.81,0.01711
4094.66,0.00015
4071.52,0.00080
4048.37,0.00472
4025.23,0.02288
4002.08,0.02261
3978.94,0.02168
3955.8,0.03424
3932.65,0.02780
3909.51,0.02038
3886.36,0.01283
3863.22,0.04111
3840.07,0.07918
3816.93,0.08091
3793.78,0.10722
3770.64,0.11846
3747.49,0.05650
3724.35,0.07311
3701.2,0.01761
3678.06,0.00037
3654.92,0.00291
3631.77,0.02746
3608.63,0.05741
3585.48,0.00365
3562.34,0.00162
3539.19,0.00038
3516.05,0.00016
3492.9,0.01336
3469.76,0.02981
3446.61,0.06349
3423.47,0.09842
3400.33,0.09616
3377.18,0.06075
3354.04,0.06029
3330.89,0.05348
3307.75,0.02314
3284.6,0.01127
3261.46,0.00649
3238.31,0.00408
3215.17,0.00249
3192.02,0.00021
3168.88,0.00067
3145.73,-0.00018
3122.59,0.00059
3099.45,0.00052
3076.3,0.00034
3053.16,0.00043
3030.01,0.00024
3006.87,0.00025
2983.72,0.00045
2960.58,0.00082
2937.43,0.00064
2914.29,0.00042
2891.14,0.00032
2868,0.00079
2844.86,0.00072
2821.71,0.00075
2798.57,0.00077
2775.42,0.00047
2752.28,0.00638
2729.13,0.00326
2705.99,0.00713
2682.84,0.02288
2659.7,0.02195
2636.55,0.04042
2613.41,0.00372
2590.26,0.00312
2567.12,0.01138
2543.98,0.00890
2520.83,0.00515
2497.69,0.00104
2474.54,0.00012
2451.4,0.00039
2428.25,0.00023
2405.11,0.00012
2381.96,0.00026
2358.82,0.00145
2335.67,0.00061
2312.53,0.00017
2289.39,0.00074
2266.24,0.00026
2243.1,0.00034
2219.95,0.00026
2196.81,0.00049
2173.66,0.00022
2150.52,0.00408
2127.37,0.00086
2104.23,0.00038
2081.08,0.00018
2057.94,0.00013
2034.79,0.00036
2011.65,0.00022
1988.51,0.00034
1965.36,0.00007
1942.22,0.00035
1919.07,0.00048
1895.93,0.00043
1872.78,0.00031
1849.64,0.00019
1826.49,0.00030
1803.35,0.00024
1780.2,0.00045
1757.06,0.00042
1733.92,0.00022
1710.77,0.00040
1687.63,0.00027
1664.48,0.00013
1641.34,0.00030
1618.19,0.00048
1595.05,0.00025
1571.9,0.00040
1548.76,0.00010
1525.61,-0.00001
1502.47,0.00047
1479.32,0.00014
1456.18,0.00075
1433.04,0.00040
1409.89,0.00043
1386.75,0.00029
1363.6,0.00026
1340.46,0.00026
1317.31,0.00045
1294.17,0.00035
1271.02,0.00033
1247.88,0.00009
1224.73,0.00018
1201.59,0.00076
1178.45,0.00055
1155.3,0.00015
1132.16,0.00018
1109.01,0.00032
1085.87,0.00078
1062.72,0.00076
1039.58,0.00044
1016.43,0.00044
993.288,0.00044
970.144,0.00040
946.999,0.00054
923.855,0.00037
900.71,0.00032
877.565,0.00049
854.421,0.00032
831.276,0.00078
808.132,0.00065
784.987,0.00031
761.843,0.00097
738.698,0.00052
715.553,0.00065
692.409,0.00047
669.264,0.00085
646.12,0.00066
622.975,0.00017
599.83,0.00286

File: PC_2.93_Trans_S_IS_230516_R2.dpt
7496.92,0.87888
7473.77,0.86358
7450.63,0.86679
7427.48,0.84878
7404.34,0.83299
7381.19,0.82870
7358.05,0.85288
7334.9,0.76403
7311.76,0.75900
7288.62,0.76144
7265.47,0.75873
7242.33,0.75626
7219.18,0.74474
7196.04,0.75812
7172.89,0.75224
7149.75,0.77733
7126.6,0.74994
7103.46,0.77697
7080.31,0.79039
7057.17,0.81188
7034.02,0.81738
7010.88,0.82035
6987.74,0.80949
6964.59,0.80878
6941.45,0.82454
6918.3,0.82879
6895.16,0.83488
6872.01,0.82798
6848.87,0.82493
6825.72,0.84622
6802.58,0.83978
6779.43,0.84453
6756.29,0.85999
6733.15,0.84894
6710,0.85085
6686.86,0.86651
6663.71,0.86391
6640.57,0.86876
6617.42,0.87421
6594.28,0.86286
6571.13,0.87972
6547.99,0.86351
6524.84,0.87934
6501.7,0.87330
6478.55,0.87783
6455.41,0.87141
6432.27,0.87502
6409.12,0.88027
6385.98,0.87646
6362.83,0.86230
6339.69,0.87295
6316.54,0.85898
6293.4,0.85049
6270.25,0.84633
6247.11,0.84244
6223.96,0.80103
6200.82,0.77240
6177.68,0.71371
6154.53,0.67442
6131.39,0.61813
6108.24,0.55155
6085.1,0.41137
6061.95,0.31560
6038.81,0.21248
6015.66,0.08694
5992.52,0.04396
5969.37,0.15048
5946.23,0.18634
5923.08,0.16283
5899.94,0.21089
5876.8,0.28229
5853.65,0.42085
5830.51,0.45489
5807.36,0.46697
5784.22,0.43466
5761.07,0.39294
5737.93,0.49740
5714.78,0.60242
5691.64,0.62307
5668.49,0.55587
5645.35,0.58726
5622.21,0.66960
5599.06,0.69200
5575.92,0.68484
5552.77,0.67503
5529.63,0.67764
5506.48,0.67150
5483.34,0.65920
5460.19,0.65254
5437.05,0.67695
5413.9,0.67069
5390.76,0.68316
5367.61,0.69068
5344.47,0.66610
5321.33,0.67525
5298.18,0.65002
5275.04,0.54835
5251.89,0.55461
5228.75,0.66610
5205.6,0.69823
5182.46,0.69506
5159.31,0.70205
5136.17,0.72237
5113.02,0.72873
5089.88,0.72193
5066.74,0.71904
5043.59,0.72374
5020.45,0.71185
4997.3,0.69976
4974.16,0.68202
4951.01,0.67761
4927.87,0.66292
4904.72,0.60165
4881.58,0.57060
4858.43,0.53048
4835.29,0.51104
4812.14,0.53744
4789,0.52337
4765.86,0.46012
4742.71,0.36299
4719.57,0.18312
4696.42,0.03415
4673.28,0.02219
4650.13,0.04490
4626.99,0.02451
4603.84,0.18088
4580.7,0.12401
4557.55,0.22147
4534.41,0.27964
4511.27,0.28195
4488.12,0.19212
4464.98,0.16299
4441.83,0.08591
4418.69,0.01808
4395.54,0.01349
4372.4,0.01018
4349.25,0.00457
4326.11,0.00183
4302.96,0.00386
4279.82,0.00741
4256.67,0.01465
4233.53,0.01558
4210.39,0.01027
4187.24,0.00765
4164.1,0.00723
4140.95,0.02287
4117.81,0.01669
4094.66,0.00086
4071.52,0.00063
4048.37,0.00527
4025.23,0.02355
4002.08,0.02309
3978.94,0.02086
3955.8,0.03426
3932.65,0.02895
3909.51,0.01916
3886.36,0.01219
3863.22,0.04091
3840.07,0.07947
3816.93,0.07962
3793.78,0.10799
3770.64,0.11971
3747.49,0.05629
3724.35,0.07239
3701.2,0.01698
3678.06,0.00116
3654.92,0.00193
3631.77,0.02903
3608.63,0.05714
3585.48,0.00264
3562.34,0.00102
3539.19,0.00066
3516.05,0.00078
3492.9,0.01355
3469.76,0.03002
3446.61,0.06391
3423.47,0.10032
3400.33,0.09708
3377.18,0.06088
3354.04,0.06021
3330.89,0.05269
3307.75,0.02395
3284.6,0.01136
3261.46,0.00688
3238.31,0.00306
3215.17,0.00123
3192.02,0.00067
3168.88,0.00026
3145.73,0.00008
3122.59,0.00039
3099.45,0.00085
3076.3,0.00036
3053.16,0.00053
3030.01,0.00020
3006.87,0.00040
2983.72,0.00047
2960.58,0.00036
2937.43,0.00033
2914.29,0.00051
2891.14,0.00033
2868,0.00039
2844.86,0.00007
2821.71,0.00057
2798.57,0.00089
2775.42,0.00035
2752.28,0.00550
2729.13,0.00349
2705.99,0.00722
2682.84,0.02279
2659.7,0.02155
2636.55,0.04056
2613.41,0.00381
2590.26,0.00299
2567.12,0.01092
2543.98,0.00890
2520.83,0.00550
2497.69,0.00102
2474.54,0.00005
2451.4,0.00038
2428.25,0.00030
2405.11,0.00021
2381.96,0.00035
2358.82,0.00088
2335.67,0.00084
2312.53,0.00062
2289.39,0.00031
2266.24,0.00033
2243.1,0.00012
2219.95,0.00004
2196.81,0.00026
2173.66,0.00023
2150.52,0.00357
2127.37,0.00100
2104.23,0.00029
2081.08,0.00016
2057.94,0.00053
2034.79,0.00041
2011.65,0.00027
1988.51,0.00027
1965.36,0.00044
1942.22,0.00024
1919.07,0.00018
1895.93,0.00043
1872.78,0.00029
1849.64,0.00034
1826.49,0.00022
1803.35,0.00042
1780.2,0.00034
1757.06,0.00029
1733.92,0.00038
1710.77,0.00024
1687.63,0.00041
1664.48,0.00045
1641.34,0.00038
1618.19,0.00022
1595.05,0.00040
1571.9,0.00053
1548.76,0.00030
1525.61,0.00086
1502.47,0.00039
1479.32,0.00011
1456.18,0.00048
1433.04,0.00023
1409.89,0.00023
1386.75,0.00019
1363.6,0.00025
1340.46,0.00036
1317.31,0.00036
1294.17,0.00026
1271.02,0.00036
1247.88,0.00054
1224.73,0.00017
1201.59,0.00030
1178.45,0.00012
1155.3,0.00052
1132.16,0.00018
1109.01,0.00078
1085.87,0.00063
1062.72,0.00025
1039.58,0.00053
1016.43,0.00044
993.288,0.00064
970.144,0.00022
946.999,0.00061
923.855,0.00044
900.71,0.00020
877.565,0.00031
854.421,0.00039
831.276,0.00086
808.132,-0.00006
784.987,0.00061
761.843,0.00063
738.698,0.00010
715.553,0.00097
692.409,0.00085
669.264,0.00202
646.12,0.00137
622.975,0.00223
599.83,0.00413

File: PC_2.93_Trans_S_IS_230516_R3.dpt
7496.92,0.89988
7473.77,0.88594
7450.63,0.84422
7427.48,0.87051
7404.34,0.82673
7381.19,0.79835
7358.05,0.77822
7334.9,0.78235
7311.76,0.76958
7288.62,0.76166
7265.47,0.77394
7242.33,0.74705
7219.18,0.78511
7196.04,0.74743
7172.89,0.75143
7149.75,0.75762
7126.6,0.78089
7103.46,0.76931
7080.31,0.77124
7057.17,0.81661
7034.02,0.81058
7010.88,0.81822
6987.74,0.81391
6964.59,0.82857
6941.45,0.81103
6918.3,0.82930
6895.16,0.83953
6872.01,0.82335
6848.87,0.83813
6825.72,0.83925
6802.58,0.81841
6779.43,0.84301
6756.29,0.84411
6733.15,0.85905
6710,0.87042
6686.86,0.86905
6663.71,0.86915
6640.57,0.86747
6617.42,0.86297
6594.28,0.87560
6571.13,0.87952
6547.99,0.86716
6524.84,0.88604
6501.7,0.87793
6478.55,0.89152
6455.41,0.88310
6432.27,0.87867
6409.12,0.88077
6385.98,0.88402
6362.83,0.87609
6339.69,0.86779
6316.54,0.85794
6293.4,0.85389
6270.25,0.84160
6247.11,0.82353
6223.96,0.80280
6200.82,0.77183
6177.68,0.69718
6154.53,0.68295
6131.39,0.61299
6108.24,0.54589
6085.1,0.41069
6061.95,0.32062
6038.81,0.21108
6015.66,0.08245
5992.52,0.04503
5969.37,0.14992
5946.23,0.18554
5923.08,0.15763
5899.94,0.20386
5876.8,0.27787
5853.65,0.42035
5830.51,0.44964
5807.36,0.46402
5784.22,0.43362
5761.07,0.39320
5737.93,0.49166
5714.78,0.59583
5691.64,0.61703
5668.49,0.55727
5645.35,0.58501
5622.21,0.66492
5599.06,0.68654
5575.92,0.67940
5552.77,0.66810
5529.63,0.67182
5506.48,0.67319
5483.34,0.65895
5460.19,0.65273
5437.05,0.67884
5413.9,0.67158
5390.76,0.67816
5367.61,0.68634
5344.47,0.66197
5321.33,0.67383
5298.18,0.64901
5275.04,0.54635
5251.89,0.55225
5228.75,0.66489
5205.6,0.69342
5182.46,0.69937
5159.31,0.69897
5136.17,0.71897
5113.02,0.72585
5089.88,0.72215
5066.74,0.71688
5043.59,0.72113
5020.45,0.70900
4997.3,0.69586
4974.16,0.68222
4951.01,0.67789
4927.87,0.66043
4904.72,0.60066
4881.58,0.56867
4858.43,0.52711
4835.29,0.51056
4812.14,0.53402
4789,0.52083
4765.86,0.45998
4742.71,0.36100
4719.57,0.18238
4696.42,0.03377
4673.28,0.02324
4650.13,0.04432
4626.99,0.02345
4603.84,0.18016
4580.7,0.12216
4557.55,0.22107
4534.41,0.27720
4511.27,0.28131
4488.12,0.19053
4464.98,0.16359
4441.83,0.08613
4418.69,0.01706
4395.54,0.01420
4372.4,0.01059
4349.25,0.00438
4326.11,0.00146
4302.96,0.00386
4279.82,0.00878
4256.67,0.01460
4233.53,0.01490
4210.39,0.00923
4187.24,0.00722
4164.1,0.00765
4140.95,0.02237
4117.81,0.01707
4094.66,0.00055
4071.52,0.00068
4048.37,0.00480
4025.23,0.02287
4002.08,0.02192
3978.94,0.02147
3955.8,0.03474
3932.65,0.02854
3909.51,0.01938
3886.36,0.01087
3863.22,0.04079
3840.07,0.07779
3816.93,0.07920
3793.78,0.10722
3770.64,0.11871
3747.49,0.05534
3724.35,0.07202
3701.2,0.01737
3678.06,0.00075
3654.92,0.00250
3631.77,0.02828
3608.63,0.05711
3585.48,0.00237
3562.34,0.00068
3539.19,0.00089
3516.05,0.00059
3492.9,0.01352
3469.76,0.02988
3446.61,0.06393
3423.47,0.09953
3400.33,0.09665
3377.18,0.06039
3354.04,0.05979
3330.89,0.05329
3307.75,0.02282
3284.6,0.01115
3261.46,0.00718
3238.31,0.00430
3215.17,0.00175
3192.02,0.00116
3168.88,0.00049
3145.73,0.00008
3122.59,0.00039
3099.45,0.00056
3076.3,0.00000
3053.16,0.00029
3030.01,0.00049
3006.87,0.00092
2983.72,0.00079
2960.58,0.00033
2937.43,0.00025
2914.29,0.00025
2891.14,0.00041
2868,0.00066
2844.86,0.00055
2821.71,0.00026
2798.57,0.00038
2775.42,0.00045
2752.28,0.00596
2729.13,0.00340
2705.99,0.00728
2682.84,0.02292
2659.7,0.02216
2636.55,0.04039
2613.41,0.00382
2590.26,0.00305
2567.12,0.01093
2543.98,0.00892
2520.83,0.00509
2497.69,0.00109
2474.54,0.00013
2451.4,0.00021
2428.25,0.00010
2405.11,0.00034
2381.96,0.00048
2358.82,0.00170
2335.67,0.00024
2312.53,0.00061
2289.39,0.00038
2266.24,0.00023
2243.1,0.00014
2219.95,0.00027
2196.81,0.00012
2173.66,0.00031
2150.52,0.00347
2127.37,0.00049
2104.23,0.00004
2081.08,0.00062
2057.94,0.00045
2034.79,0.00000
2011.65,0.00039
1988.51,0.00024
1965.36,0.00043
1942.22,0.00039
1919.07,0.00022
1895.93,0.00031
1872.78,0.00045
1849.64,0.00024
1826.49,0.00046
1803.35,0.00027
1780.2,0.00044
1757.06,0.00021
1733.92,0.00080
1710.77,0.00023
1687.63,0.00056
1664.48,0.00022
1641.34,0.00036
1618.19,0.00005
1595.05,0.00032
1571.9,0.00034
1548.76,0.00053
1525.61,0.00008
1502.47,0.00033
1479.32,0.00014
1456.18,0.00059
1433.04,0.00025
1409.89,0.00058
1386.75,0.00027
1363.6,0.00034
1340.46,0.00009
1317.31,0.00065
1294.17,0.00026
1271.02,0.00009
1247.88,0.00034
1224.73,0.00008
1201.59,0.00045
1178.45,0.00042
1155.3,0.00020
1132.16,-0.00001
1109.01,0.00119
1085.87,0.00078
1062.72,0.00065
1039.58,0.00037
1016.43,0.00044
993.288,0.00048
970.144,0.00041
946.999,0.00032
923.855,0.00037
900.71,0.00039
877.565,0.00052
854.421,0.00016
831.276,0.00001
808.132,0.00064
784.987,0.00078
761.843,0.00048
738.698,0.00098
715.553,0.00085
692.409,0.00131
669.264,0.00153
646.12,0.00253
622.975,0.00145
599.83,0.00208