Folder: fsri_materials_database/01_Data/PC/FTIR/IS (part 2)

File: PC_0.81_Trans_S_IS_230516_R1.dpt
7496.92,0.91682
7473.77,0.91501
7450.63,0.87765
7427.48,0.87248
7404.34,0.92046
7381.19,0.84414
7358.05,0.86598
7334.9,0.85631
7311.76,0.86870
7288.62,0.86904
7265.47,0.88695
7242.33,0.88585
7219.18,0.84315
7196.04,0.91534
7172.89,0.88237
7149.75,0.84539
7126.6,0.87222
7103.46,0.86741
7080.31,0.87795
7057.17,0.84799
7034.02,0.89407
7010.88,0.88535
6987.74,0.86909
6964.59,0.88499
6941.45,0.88872
6918.3,0.91671
6895.16,0.88905
6872.01,0.89176
6848.87,0.88615
6825.72,0.89288
6802.58,0.89188
6779.43,0.88626
6756.29,0.90248
6733.15,0.89750
6710,0.90933
6686.86,0.89278
6663.71,0.89639
6640.57,0.91663
6617.42,0.89645
6594.28,0.91201
6571.13,0.91041
6547.99,0.92058
6524.84,0.89035
6501.7,0.91026
6478.55,0.91009
6455.41,0.89604
6432.27,0.90000
6409.12,0.89685
6385.98,0.89893
6362.83,0.89311
6339.69,0.89975
6316.54,0.89603
6293.4,0.88517
6270.25,0.89076
6247.11,0.88396
6223.96,0.87803
6200.82,0.87256
6177.68,0.85073
6154.53,0.84213
6131.39,0.81010
6108.24,0.79279
6085.1,0.72638
6061.95,0.67863
6038.81,0.61292
6015.66,0.47693
5992.52,0.39625
5969.37,0.55210
5946.23,0.58253
5923.08,0.55574
5899.94,0.59900
5876.8,0.64761
5853.65,0.73633
5830.51,0.74823
5807.36,0.75058
5784.22,0.73970
5761.07,0.72402
5737.93,0.76915
5714.78,0.81107
5691.64,0.81637
5668.49,0.79362
5645.35,0.80431
5622.21,0.83303
5599.06,0.84623
5575.92,0.84192
5552.77,0.83896
5529.63,0.83842
5506.48,0.83578
5483.34,0.83131
5460.19,0.82353
5437.05,0.83619
5413.9,0.83480
5390.76,0.83832
5367.61,0.84434
5344.47,0.82857
5321.33,0.83860
5298.18,0.83101
5275.04,0.79298
5251.89,0.79217
5228.75,0.83275
5205.6,0.84203
5182.46,0.84664
5159.31,0.84746
5136.17,0.85668
5113.02,0.85843
5089.88,0.85633
5066.74,0.85540
5043.59,0.85873
5020.45,0.85159
4997.3,0.84888
4974.16,0.84461
4951.01,0.84074
4927.87,0.83503
4904.72,0.81548
4881.58,0.80197
4858.43,0.78571
4835.29,0.77964
4812.14,0.78876
4789,0.78309
4765.86,0.75710
4742.71,0.70873
4719.57,0.58841
4696.42,0.37341
4673.28,0.33578
4650.13,0.39458
4626.99,0.33300
4603.84,0.58303
4580.7,0.52608
4557.55,0.61674
4534.41,0.65817
4511.27,0.65933
4488.12,0.59355
4464.98,0.56753
4441.83,0.47171
4418.69,0.30247
4395.54,0.28332
4372.4,0.25601
4349.25,0.20519
4326.11,0.15969
4302.96,0.20623
4279.82,0.24622
4256.67,0.29312
4233.53,0.29177
4210.39,0.26128
4187.24,0.24372
4164.1,0.23864
4140.95,0.32658
4117.81,0.30179
4094.66,0.11538
4071.52,0.03846
4048.37,0.20216
4025.23,0.33206
4002.08,0.32896
3978.94,0.32258
3955.8,0.36927
3932.65,0.34918
3909.51,0.31836
3886.36,0.27513
3863.22,0.38023
3840.07,0.45383
3816.93,0.45773
3793.78,0.50380
3770.64,0.51522
3747.49,0.40982
3724.35,0.44306
3701.2,0.29890
3678.06,0.07790
3654.92,0.17017
3631.77,0.34099
3608.63,0.41198
3585.48,0.17958
3562.34,0.12213
3539.19,0.05861
3516.05,0.10699
3492.9,0.27888
3469.76,0.35033
3446.61,0.42754
3423.47,0.48303
3400.33,0.47978
3377.18,0.42345
3354.04,0.42314
3330.89,0.40942
3307.75,0.32653
3284.6,0.26960
3261.46,0.23428
3238.31,0.20390
3215.17,0.16185
3192.02,0.09294
3168.88,0.09502
3145.73,0.06169
3122.59,0.00561
3099.45,0.00196
3076.3,0.00042
3053.16,0.00013
3030.01,0.00061
3006.87,0.00036
2983.72,0.00035
2960.58,0.00063
2937.43,0.00049
2914.29,0.00051
2891.14,0.00021
2868,0.00022
2844.86,0.03507
2821.71,0.10672
2798.57,0.11888
2775.42,0.07054
2752.28,0.22952
2729.13,0.19516
2705.99,0.23858
2682.84,0.33170
2659.7,0.33081
2636.55,0.38925
2613.41,0.20871
2590.26,0.19068
2567.12,0.27344
2543.98,0.25689
2520.83,0.22110
2497.69,0.14343
2474.54,0.05712
2451.4,0.05496
2428.25,0.04744
2405.11,0.02669
2381.96,0.06614
2358.82,0.13187
2335.67,0.11133
2312.53,0.11533
2289.39,0.09444
2266.24,0.02956
2243.1,0.00075
2219.95,0.00236
2196.81,0.00599
2173.66,0.06953
2150.52,0.20454
2127.37,0.12976
2104.23,0.06223
2081.08,0.01029
2057.94,0.00895
2034.79,0.01931
2011.65,0.01401
1988.51,0.01839
1965.36,0.05261
1942.22,0.02682
1919.07,0.00719
1895.93,0.00016
1872.78,0.00088
1849.64,0.00020
1826.49,0.00026
1803.35,0.00041
1780.2,0.00006
1757.06,0.00042
1733.92,0.00072
1710.77,0.00039
1687.63,0.00178
1664.48,0.00030
1641.34,0.00035
1618.19,0.00050
1595.05,0.00050
1571.9,0.00081
1548.76,0.00022
1525.61,0.00018
1502.47,0.00041
1479.32,0.00023
1456.18,0.00053
1433.04,0.00023
1409.89,0.00024
1386.75,0.00055
1363.6,0.00009
1340.46,0.00035
1317.31,-0.00007
1294.17,0.00026
1271.02,0.00037
1247.88,0.00017
1224.73,0.00052
1201.59,0.00046
1178.45,0.00065
1155.3,0.00054
1132.16,0.00037
1109.01,0.00040
1085.87,0.00007
1062.72,0.00048
1039.58,0.00023
1016.43,0.00002
993.288,0.00029
970.144,0.00255
946.999,0.00040
923.855,0.00151
900.71,0.00047
877.565,0.00048
854.421,0.00048
831.276,0.00107
808.132,0.00038
784.987,0.00069
761.843,0.00025
738.698,0.00061
715.553,0.00085
692.409,0.00226
669.264,0.05051
646.12,0.05794
622.975,0.02520
599.83,0.00352

File: PC_0.81_Trans_S_IS_230516_R2.dpt
7496.92,0.91146
7473.77,0.89983
7450.63,0.91599
7427.48,0.86053
7404.34,0.90543
7381.19,0.86564
7358.05,0.84757
7334.9,0.85371
7311.76,0.84992
7288.62,0.87168
7265.47,0.87986
7242.33,0.83973
7219.18,0.83604
7196.04,0.87707
7172.89,0.86697
7149.75,0.84617
7126.6,0.86853
7103.46,0.86333
7080.31,0.87329
7057.17,0.84272
7034.02,0.87130
7010.88,0.87804
6987.74,0.88760
6964.59,0.88689
6941.45,0.88748
6918.3,0.92155
6895.16,0.88672
6872.01,0.87675
6848.87,0.88548
6825.72,0.90117
6802.58,0.90058
6779.43,0.89136
6756.29,0.90639
6733.15,0.90164
6710,0.91173
6686.86,0.90994
6663.71,0.90120
6640.57,0.90673
6617.42,0.90980
6594.28,0.91661
6571.13,0.90638
6547.99,0.90328
6524.84,0.90415
6501.7,0.90681
6478.55,0.90773
6455.41,0.89882
6432.27,0.90045
6409.12,0.90500
6385.98,0.90739
6362.83,0.90287
6339.69,0.90745
6316.54,0.90381
6293.4,0.89335
6270.25,0.89080
6247.11,0.88996
6223.96,0.87721
6200.82,0.87368
6177.68,0.85311
6154.53,0.84274
6131.39,0.81501
6108.24,0.79618
6085.1,0.73967
6061.95,0.68066
6038.81,0.61541
6015.66,0.47920
5992.52,0.39555
5969.37,0.55653
5946.23,0.58452
5923.08,0.56083
5899.94,0.59959
5876.8,0.65295
5853.65,0.73479
5830.51,0.74715
5807.36,0.75577
5784.22,0.73684
5761.07,0.72292
5737.93,0.76813
5714.78,0.81665
5691.64,0.82069
5668.49,0.79661
5645.35,0.80843
5622.21,0.83798
5599.06,0.84888
5575.92,0.84388
5552.77,0.84144
5529.63,0.84302
5506.48,0.83792
5483.34,0.83798
5460.19,0.83124
5437.05,0.83692
5413.9,0.83617
5390.76,0.84105
5367.61,0.84663
5344.47,0.83295
5321.33,0.84427
5298.18,0.83537
5275.04,0.79942
5251.89,0.79786
5228.75,0.83540
5205.6,0.84606
5182.46,0.84727
5159.31,0.85211
5136.17,0.85856
5113.02,0.86016
5089.88,0.85842
5066.74,0.85769
5043.59,0.85982
5020.45,0.85561
4997.3,0.85161
4974.16,0.84813
4951.01,0.84358
4927.87,0.83802
4904.72,0.81864
4881.58,0.80614
4858.43,0.78758
4835.29,0.78207
4812.14,0.79202
4789,0.78465
4765.86,0.76042
4742.71,0.71062
4719.57,0.59156
4696.42,0.37534
4673.28,0.33494
4650.13,0.39706
4626.99,0.33363
4603.84,0.58552
4580.7,0.52640
4557.55,0.61742
4534.41,0.66029
4511.27,0.66221
4488.12,0.59478
4464.98,0.56919
4441.83,0.47345
4418.69,0.30295
4395.54,0.28479
4372.4,0.25619
4349.25,0.20554
4326.11,0.16067
4302.96,0.20702
4279.82,0.24670
4256.67,0.29201
4233.53,0.29354
4210.39,0.26233
4187.24,0.24471
4164.1,0.23943
4140.95,0.32842
4117.81,0.30240
4094.66,0.11657
4071.52,0.03780
4048.37,0.20324
4025.23,0.33288
4002.08,0.32997
3978.94,0.32372
3955.8,0.37050
3932.65,0.34969
3909.51,0.31920
3886.36,0.27676
3863.22,0.37983
3840.07,0.45424
3816.93,0.45882
3793.78,0.50601
3770.64,0.51688
3747.49,0.41087
3724.35,0.44515
3701.2,0.30074
3678.06,0.07885
3654.92,0.17560
3631.77,0.34537
3608.63,0.41547
3585.48,0.18396
3562.34,0.12421
3539.19,0.05924
3516.05,0.10875
3492.9,0.28169
3469.76,0.35372
3446.61,0.42957
3423.47,0.48579
3400.33,0.48268
3377.18,0.42517
3354.04,0.42505
3330.89,0.41162
3307.75,0.32780
3284.6,0.27070
3261.46,0.23573
3238.31,0.20416
3215.17,0.16210
3192.02,0.09312
3168.88,0.09493
3145.73,0.06192
3122.59,0.00519
3099.45,0.00186
3076.3,0.00014
3053.16,0.00079
3030.01,0.00006
3006.87,0.00035
2983.72,0.00020
2960.58,0.00039
2937.43,0.00035
2914.29,0.00045
2891.14,0.00040
2868,0.00018
2844.86,0.03516
2821.71,0.10688
2798.57,0.11915
2775.42,0.07089
2752.28,0.23000
2729.13,0.19546
2705.99,0.23920
2682.84,0.33242
2659.7,0.33122
2636.55,0.39023
2613.41,0.20953
2590.26,0.19127
2567.12,0.27396
2543.98,0.25757
2520.83,0.22175
2497.69,0.14369
2474.54,0.05702
2451.4,0.05552
2428.25,0.04758
2405.11,0.02653
2381.96,0.06606
2358.82,0.13375
2335.67,0.11447
2312.53,0.11630
2289.39,0.09479
2266.24,0.02963
2243.1,0.00086
2219.95,0.00201
2196.81,0.00576
2173.66,0.06989
2150.52,0.20488
2127.37,0.13009
2104.23,0.06202
2081.08,0.00998
2057.94,0.00896
2034.79,0.01936
2011.65,0.01384
1988.51,0.01826
1965.36,0.05209
1942.22,0.02663
1919.07,0.00704
1895.93,0.00054
1872.78,0.00088
1849.64,0.00012
1826.49,0.00015
1803.35,0.00034
1780.2,0.00038
1757.06,0.00006
1733.92,0.00053
1710.77,0.00023
1687.63,0.00175
1664.48,0.00024
1641.34,0.00015
1618.19,0.00014
1595.05,0.00033
1571.9,0.00073
1548.76,0.00022
1525.61,0.00052
1502.47,0.00029
1479.32,0.00017
1456.18,0.00063
1433.04,0.00047
1409.89,0.00036
1386.75,0.00024
1363.6,0.00014
1340.46,0.00053
1317.31,0.00047
1294.17,0.00043
1271.02,0.00015
1247.88,0.00035
1224.73,0.00034
1201.59,0.00014
1178.45,0.00011
1155.3,0.00047
1132.16,0.00053
1109.01,0.00058
1085.87,0.00011
1062.72,0.00054
1039.58,0.00024
1016.43,0.00040
993.288,0.00021
970.144,0.00219
946.999,0.00070
923.855,0.00184
900.71,0.00014
877.565,0.00047
854.421,0.00082
831.276,0.00112
808.132,0.00026
784.987,0.00074
761.843,0.00128
738.698,0.00069
715.553,0.00042
692.409,0.00223
669.264,0.05049
646.12,0.05842
622.975,0.02805
599.83,0.00249

File: PC_0.81_Trans_S_IS_230516_R3.dpt
7496.92,0.90226
7473.77,0.90672
7450.63,0.89172
7427.48,0.86820
7404.34,0.89302
7381.19,0.87620
7358.05,0.87793
7334.9,0.87158
7311.76,0.85700
7288.62,0.87838
7265.47,0.87070
7242.33,0.85833
7219.18,0.86619
7196.04,0.89626
7172.89,0.88880
7149.75,0.84601
7126.6,0.87894
7103.46,0.85102
7080.31,0.84461
7057.17,0.86646
7034.02,0.87692
7010.88,0.89830
6987.74,0.89008
6964.59,0.88129
6941.45,0.89591
6918.3,0.90486
6895.16,0.90693
6872.01,0.88975
6848.87,0.89101
6825.72,0.90411
6802.58,0.88776
6779.43,0.88712
6756.29,0.89716
6733.15,0.89977
6710,0.90417
6686.86,0.90780
6663.71,0.89565
6640.57,0.92173
6617.42,0.90287
6594.28,0.91192
6571.13,0.91857
6547.99,0.90468
6524.84,0.90195
6501.7,0.90027
6478.55,0.90609
6455.41,0.90233
6432.27,0.90270
6409.12,0.89850
6385.98,0.89864
6362.83,0.89380
6339.69,0.90062
6316.54,0.89515
6293.4,0.89471
6270.25,0.88801
6247.11,0.88834
6223.96,0.87760
6200.82,0.86672
6177.68,0.84570
6154.53,0.84172
6131.39,0.81670
6108.24,0.80016
6085.1,0.72413
6061.95,0.67944
6038.81,0.60981
6015.66,0.47166
5992.52,0.39569
5969.37,0.55101
5946.23,0.58070
5923.08,0.55775
5899.94,0.60244
5876.8,0.65303
5853.65,0.73152
5830.51,0.74734
5807.36,0.75648
5784.22,0.73870
5761.07,0.72336
5737.93,0.77036
5714.78,0.81214
5691.64,0.81992
5668.49,0.79228
5645.35,0.80445
5622.21,0.83433
5599.06,0.84749
5575.92,0.84293
5552.77,0.83749
5529.63,0.84080
5506.48,0.83575
5483.34,0.83345
5460.19,0.82790
5437.05,0.83566
5413.9,0.83456
5390.76,0.84003
5367.61,0.84714
5344.47,0.82852
5321.33,0.84337
5298.18,0.83322
5275.04,0.79688
5251.89,0.79614
5228.75,0.83492
5205.6,0.84484
5182.46,0.84781
5159.31,0.84744
5136.17,0.85728
5113.02,0.85979
5089.88,0.85837
5066.74,0.85694
5043.59,0.85899
5020.45,0.85391
4997.3,0.84916
4974.16,0.84516
4951.01,0.84046
4927.87,0.83593
4904.72,0.81704
4881.58,0.80330
4858.43,0.78636
4835.29,0.77957
4812.14,0.79002
4789,0.78496
4765.86,0.75863
4742.71,0.70916
4719.57,0.59032
4696.42,0.37478
4673.28,0.33509
4650.13,0.39649
4626.99,0.33212
4603.84,0.58465
4580.7,0.52588
4557.55,0.61585
4534.41,0.65882
4511.27,0.66188
4488.12,0.59413
4464.98,0.56726
4441.83,0.47236
4418.69,0.30187
4395.54,0.28351
4372.4,0.25634
4349.25,0.20505
4326.11,0.16036
4302.96,0.20711
4279.82,0.24722
4256.67,0.29249
4233.53,0.29300
4210.39,0.26136
4187.24,0.24371
4164.1,0.23933
4140.95,0.32772
4117.81,0.30128
4094.66,0.11585
4071.52,0.03759
4048.37,0.20260
4025.23,0.33226
4002.08,0.32926
3978.94,0.32236
3955.8,0.37030
3932.65,0.34993
3909.51,0.31844
3886.36,0.27518
3863.22,0.38091
3840.07,0.45385
3816.93,0.45816
3793.78,0.50510
3770.64,0.51578
3747.49,0.41091
3724.35,0.44492
3701.2,0.30273
3678.06,0.08176
3654.92,0.17757
3631.77,0.34770
3608.63,0.41673
3585.48,0.18480
3562.34,0.12594
3539.19,0.05961
3516.05,0.10840
3492.9,0.28208
3469.76,0.35371
3446.61,0.42994
3423.47,0.48519
3400.33,0.48121
3377.18,0.42544
3354.04,0.42425
3330.89,0.41068
3307.75,0.32726
3284.6,0.27064
3261.46,0.23536
3238.31,0.20399
3215.17,0.16221
3192.02,0.09264
3168.88,0.09507
3145.73,0.06134
3122.59,0.00536
3099.45,0.00228
3076.3,0.00042
3053.16,0.00058
3030.01,0.00026
3006.87,0.00036
2983.72,0.00060
2960.58,0.00056
2937.43,0.00046
2914.29,0.00048
2891.14,0.00018
2868,0.00055
2844.86,0.03505
2821.71,0.10659
2798.57,0.11903
2775.42,0.07037
2752.28,0.22982
2729.13,0.19541
2705.99,0.23860
2682.84,0.33154
2659.7,0.33039
2636.55,0.38947
2613.41,0.20888
2590.26,0.19073
2567.12,0.27339
2543.98,0.25708
2520.83,0.22160
2497.69,0.14365
2474.54,0.05743
2451.4,0.05530
2428.25,0.04716
2405.11,0.02693
2381.96,0.06637
2358.82,0.13605
2335.67,0.11479
2312.53,0.11679
2289.39,0.09498
2266.24,0.02946
2243.1,0.00091
2219.95,0.00212
2196.81,0.00605
2173.66,0.06965
2150.52,0.20421
2127.37,0.12952
2104.23,0.06198
2081.08,0.01019
2057.94,0.00907
2034.79,0.01925
2011.65,0.01374
1988.51,0.01874
1965.36,0.05212
1942.22,0.02673
1919.07,0.00751
1895.93,0.00031
1872.78,0.00047
1849.64,0.00043
1826.49,0.00049
1803.35,0.00041
1780.2,0.00027
1757.06,0.00029
1733.92,0.00019
1710.77,0.00026
1687.63,0.00141
1664.48,0.00038
1641.34,0.00046
1618.19,0.00030
1595.05,0.00050
1571.9,0.00060
1548.76,0.00050
1525.61,0.00042
1502.47,0.00017
1479.32,0.00032
1456.18,0.00046
1433.04,0.00034
1409.89,0.00016
1386.75,0.00047
1363.6,0.00040
1340.46,0.00035
1317.31,0.00043
1294.17,0.00028
1271.02,0.00027
1247.88,0.00032
1224.73,0.00027
1201.59,0.00026
1178.45,0.00052
1155.3,0.00035
1132.16,0.00015
1109.01,0.00081
1085.87,0.00028
1062.72,0.00070
1039.58,0.00109
1016.43,0.00080
993.288,0.00067
970.144,0.00238
946.999,0.00099
923.855,0.00238
900.71,0.00037
877.565,0.00044
854.421,0.00029
831.276,0.00069
808.132,0.00075
784.987,0.00052
761.843,0.00079
738.698,0.00057
715.553,0.00073
692.409,0.00281
669.264,0.05021
646.12,0.05864
622.975,0.02695
599.83,0.00357

File: PC_1.52_S_IS_230516_R1.dpt
7496.92,0.08260
7473.77,0.11054
7450.63,0.06732
7427.48,0.11682
7404.34,0.09801
7381.19,0.09626
7358.05,0.09477
7334.9,0.08969
7311.76,0.08038
7288.62,0.06965
7265.47,0.08599
7242.33,0.07602
7219.18,0.07405
7196.04,0.09791
7172.89,0.10804
7149.75,0.08065
7126.6,0.11037
7103.46,0.09061
7080.31,0.09270
7057.17,0.08686
7034.02,0.09084
7010.88,0.11517
6987.74,0.08210
6964.59,0.10646
6941.45,0.10344
6918.3,0.09863
6895.16,0.11084
6872.01,0.10298
6848.87,0.11721
6825.72,0.09844
6802.58,0.10473
6779.43,0.10435
6756.29,0.10809
6733.15,0.11461
6710,0.12574
6686.86,0.11786
6663.71,0.09490
6640.57,0.11593
6617.42,0.10485
6594.28,0.11577
6571.13,0.11670
6547.99,0.11482
6524.84,0.10772
6501.7,0.10505
6478.55,0.10563
6455.41,0.12291
6432.27,0.11348
6409.12,0.10935
6385.98,0.11176
6362.83,0.11958
6339.69,0.12348
6316.54,0.11443
6293.4,0.11195
6270.25,0.11189
6247.11,0.11802
6223.96,0.10832
6200.82,0.09915
6177.68,0.09978
6154.53,0.09708
6131.39,0.08656
6108.24,0.09840
6085.1,0.06879
6061.95,0.06254
6038.81,0.04781
6015.66,0.04264
5992.52,0.04240
5969.37,0.04734
5946.23,0.05703
5923.08,0.04771
5899.94,0.05526
5876.8,0.06246
5853.65,0.08227
5830.51,0.08268
5807.36,0.08218
5784.22,0.07669
5761.07,0.07382
5737.93,0.08858
5714.78,0.10065
5691.64,0.10107
5668.49,0.09331
5645.35,0.10152
5622.21,0.10922
5599.06,0.11064
5575.92,0.11108
5552.77,0.11072
5529.63,0.10724
5506.48,0.11167
5483.34,0.10940
5460.19,0.10768
5437.05,0.11404
5413.9,0.11164
5390.76,0.11207
5367.61,0.11734
5344.47,0.11668
5321.33,0.11412
5298.18,0.11049
5275.04,0.10137
5251.89,0.10459
5228.75,0.11640
5205.6,0.11985
5182.46,0.11716
5159.31,0.12012
5136.17,0.12046
5113.02,0.12382
5089.88,0.12459
5066.74,0.12580
5043.59,0.12585
5020.45,0.12451
4997.3,0.12199
4974.16,0.12118
4951.01,0.12121
4927.87,0.12084
4904.72,0.11363
4881.58,0.10896
4858.43,0.10735
4835.29,0.10628
4812.14,0.10816
4789,0.10639
4765.86,0.09973
4742.71,0.09163
4719.57,0.07108
4696.42,0.05647
4673.28,0.05673
4650.13,0.05534
4626.99,0.05507
4603.84,0.06998
4580.7,0.06547
4557.55,0.07608
4534.41,0.08202
4511.27,0.08349
4488.12,0.07284
4464.98,0.07022
4441.83,0.06134
4418.69,0.05659
4395.54,0.05611
4372.4,0.05419
4349.25,0.05631
4326.11,0.05557
4302.96,0.05624
4279.82,0.05497
4256.67,0.05831
4233.53,0.05665
4210.39,0.05756
4187.24,0.05729
4164.1,0.05756
4140.95,0.05855
4117.81,0.05826
4094.66,0.05697
4071.52,0.05787
4048.37,0.05755
4025.23,0.05940
4002.08,0.05919
3978.94,0.05936
3955.8,0.06150
3932.65,0.05973
3909.51,0.05959
3886.36,0.05887
3863.22,0.06186
3840.07,0.06661
3816.93,0.06842
3793.78,0.06974
3770.64,0.07148
3747.49,0.06370
3724.35,0.06739
3701.2,0.05977
3678.06,0.05774
3654.92,0.05875
3631.77,0.06046
3608.63,0.06392
3585.48,0.05888
3562.34,0.05823
3539.19,0.05792
3516.05,0.05861
3492.9,0.05910
3469.76,0.06137
3446.61,0.06563
3423.47,0.06964
3400.33,0.06922
3377.18,0.06491
3354.04,0.06606
3330.89,0.06312
3307.75,0.06088
3284.6,0.05846
3261.46,0.05865
3238.31,0.05793
3215.17,0.05872
3192.02,0.05893
3168.88,0.05774
3145.73,0.05856
3122.59,0.05798
3099.45,0.05861
3076.3,0.05840
3053.16,0.05894
3030.01,0.05859
3006.87,0.05857
2983.72,0.05757
2960.58,0.06142
2937.43,0.06021
2914.29,0.06011
2891.14,0.06020
2868,0.06049
2844.86,0.06079
2821.71,0.06044
2798.57,0.06057
2775.42,0.06078
2752.28,0.06113
2729.13,0.06086
2705.99,0.06233
2682.84,0.06415
2659.7,0.06404
2636.55,0.06729
2613.41,0.06121
2590.26,0.06130
2567.12,0.06253
2543.98,0.06239
2520.83,0.06159
2497.69,0.06103
2474.54,0.06061
2451.4,0.06105
2428.25,0.06063
2405.11,0.06104
2381.96,0.06135
2358.82,0.06194
2335.67,0.06150
2312.53,0.06115
2289.39,0.06087
2266.24,0.06070
2243.1,0.06080
2219.95,0.06088
2196.81,0.06145
2173.66,0.06104
2150.52,0.06117
2127.37,0.06063
2104.23,0.06042
2081.08,0.06014
2057.94,0.05992
2034.79,0.06003
2011.65,0.06004
1988.51,0.05994
1965.36,0.05930
1942.22,0.05877
1919.07,0.05852
1895.93,0.05793
1872.78,0.05710
1849.64,0.05588
1826.49,0.05322
1803.35,0.04674
1780.2,0.05978
1757.06,0.07923
1733.92,0.06710
1710.77,0.06424
1687.63,0.06167
1664.48,0.05947
1641.34,0.05945
1618.19,0.05865
1595.05,0.05877
1571.9,0.05701
1548.76,0.05394
1525.61,0.04898
1502.47,0.07252
1479.32,0.06286
1456.18,0.05973
1433.04,0.05665
1409.89,0.05422
1386.75,0.05344
1363.6,0.05204
1340.46,0.04769
1317.31,0.04031
1294.17,0.03437
1271.02,0.02240
1247.88,0.09632
1224.73,0.14002
1201.59,0.09211
1178.45,0.11124
1155.3,0.13889
1132.16,0.09909
1109.01,0.08776
1085.87,0.07755
1062.72,0.08445
1039.58,0.07685
1016.43,0.07929
993.288,0.08677
970.144,0.08034
946.999,0.07687
923.855,0.07456
900.71,0.07089
877.565,0.07461
854.421,0.06586
831.276,0.07836
808.132,0.08482
784.987,0.07473
761.843,0.07953
738.698,0.07792
715.553,0.07624
692.409,0.07716
669.264,0.07464
646.12,0.07257
622.975,0.07290
599.83,0.06893

File: PC_1.52_S_IS_230516_R2.dpt
7496.92,0.07538
7473.77,0.09103
7450.63,0.04474
7427.48,0.09983
7404.34,0.08454
7381.19,0.05607
7358.05,0.10711
7334.9,0.08390
7311.76,0.10452
7288.62,0.07992
7265.47,0.04133
7242.33,0.07334
7219.18,0.08372
7196.04,0.08817
7172.89,0.11134
7149.75,0.07799
7126.6,0.07568
7103.46,0.10278
7080.31,0.08619
7057.17,0.07091
7034.02,0.09073
7010.88,0.08615
6987.74,0.11177
6964.59,0.09347
6941.45,0.09990
6918.3,0.10262
6895.16,0.08290
6872.01,0.09538
6848.87,0.09442
6825.72,0.09948
6802.58,0.10895
6779.43,0.10759
6756.29,0.09642
6733.15,0.10370
6710,0.09975
6686.86,0.09027
6663.71,0.10840
6640.57,0.11696
6617.42,0.10721
6594.28,0.10389
6571.13,0.10817
6547.99,0.11258
6524.84,0.11170
6501.7,0.11655
6478.55,0.11021
6455.41,0.11283
6432.27,0.10031
6409.12,0.11322
6385.98,0.10903
6362.83,0.11317
6339.69,0.10955
6316.54,0.10597
6293.4,0.11348
6270.25,0.11357
6247.11,0.11030
6223.96,0.10410
6200.82,0.10561
6177.68,0.10090
6154.53,0.10033
6131.39,0.09224
6108.24,0.08543
6085.1,0.07189
6061.95,0.06662
6038.81,0.06038
6015.66,0.04517
5992.52,0.03955
5969.37,0.05392
5946.23,0.05276
5923.08,0.04930
5899.94,0.05651
5876.8,0.06813
5853.65,0.07784
5830.51,0.08399
5807.36,0.08353
5784.22,0.07983
5761.07,0.07538
5737.93,0.08474
5714.78,0.10297
5691.64,0.10399
5668.49,0.09878
5645.35,0.10228
5622.21,0.10855
5599.06,0.11398
5575.92,0.11131
5552.77,0.10784
5529.63,0.10790
5506.48,0.11074
5483.34,0.10780
5460.19,0.10925
5437.05,0.11366
5413.9,0.11302
5390.76,0.11511
5367.61,0.11679
5344.47,0.11276
5321.33,0.11554
5298.18,0.11221
5275.04,0.10191
5251.89,0.10520
5228.75,0.11873
5205.6,0.11893
5182.46,0.11849
5159.31,0.12269
5136.17,0.12502
5113.02,0.12425
5089.88,0.12466
5066.74,0.12450
5043.59,0.12683
5020.45,0.12637
4997.3,0.12441
4974.16,0.12128
4951.01,0.12296
4927.87,0.12106
4904.72,0.11496
4881.58,0.11245
4858.43,0.10768
4835.29,0.10410
4812.14,0.10966
4789,0.10727
4765.86,0.10049
4742.71,0.09038
4719.57,0.07068
4696.42,0.05713
4673.28,0.05282
4650.13,0.05725
4626.99,0.05630
4603.84,0.06962
4580.7,0.06548
4557.55,0.07554
4534.41,0.08271
4511.27,0.08274
4488.12,0.07380
4464.98,0.07103
4441.83,0.06236
4418.69,0.05603
4395.54,0.05577
4372.4,0.05487
4349.25,0.05551
4326.11,0.05567
4302.96,0.05601
4279.82,0.05579
4256.67,0.05755
4233.53,0.05712
4210.39,0.05648
4187.24,0.05752
4164.1,0.05755
4140.95,0.05817
4117.81,0.05807
4094.66,0.05662
4071.52,0.05698
4048.37,0.05708
4025.23,0.05988
4002.08,0.06009
3978.94,0.05936
3955.8,0.06071
3932.65,0.05995
3909.51,0.05997
3886.36,0.05813
3863.22,0.06246
3840.07,0.06719
3816.93,0.06791
3793.78,0.07094
3770.64,0.07309
3747.49,0.06493
3724.35,0.06732
3701.2,0.06054
3678.06,0.05755
3654.92,0.05968
3631.77,0.06108
3608.63,0.06508
3585.48,0.05843
3562.34,0.05773
3539.19,0.05771
3516.05,0.05690
3492.9,0.06079
3469.76,0.06120
3446.61,0.06533
3423.47,0.06962
3400.33,0.06961
3377.18,0.06504
3354.04,0.06546
3330.89,0.06472
3307.75,0.06099
3284.6,0.05946
3261.46,0.05853
3238.31,0.05899
3215.17,0.05872
3192.02,0.05904
3168.88,0.05970
3145.73,0.05826
3122.59,0.05867
3099.45,0.05825
3076.3,0.05796
3053.16,0.05849
3030.01,0.05988
3006.87,0.05784
2983.72,0.05716
2960.58,0.06100
2937.43,0.05981
2914.29,0.06114
2891.14,0.06027
2868,0.06119
2844.86,0.06133
2821.71,0.06075
2798.57,0.06090
2775.42,0.06058
2752.28,0.06121
2729.13,0.06091
2705.99,0.06134
2682.84,0.06423
2659.7,0.06444
2636.55,0.06701
2613.41,0.06123
2590.26,0.06106
2567.12,0.06227
2543.98,0.06209
2520.83,0.06134
2497.69,0.06061
2474.54,0.06071
2451.4,0.06116
2428.25,0.06078
2405.11,0.06122
2381.96,0.06110
2358.82,0.06109
2335.67,0.06170
2312.53,0.06107
2289.39,0.06136
2266.24,0.06077
2243.1,0.06042
2219.95,0.06106
2196.81,0.06092
2173.66,0.06078
2150.52,0.06128
2127.37,0.06088
2104.23,0.06034
2081.08,0.06048
2057.94,0.06005
2034.79,0.06020
2011.65,0.06017
1988.51,0.05946
1965.36,0.05940
1942.22,0.05906
1919.07,0.05871
1895.93,0.05820
1872.78,0.05761
1849.64,0.05619
1826.49,0.05325
1803.35,0.04652
1780.2,0.06015
1757.06,0.07934
1733.92,0.06744
1710.77,0.06433
1687.63,0.06214
1664.48,0.05995
1641.34,0.06013
1618.19,0.05823
1595.05,0.05817
1571.9,0.05723
1548.76,0.05425
1525.61,0.04893
1502.47,0.07270
1479.32,0.06256
1456.18,0.06014
1433.04,0.05731
1409.89,0.05453
1386.75,0.05340
1363.6,0.05214
1340.46,0.04737
1317.31,0.04033
1294.17,0.03470
1271.02,0.02231
1247.88,0.09623
1224.73,0.14050
1201.59,0.09206
1178.45,0.11171
1155.3,0.13881
1132.16,0.09963
1109.01,0.08799
1085.87,0.07821
1062.72,0.08413
1039.58,0.07700
1016.43,0.07962
993.288,0.08694
970.144,0.08026
946.999,0.07783
923.855,0.07553
900.71,0.07090
877.565,0.07537
854.421,0.06614
831.276,0.07761
808.132,0.08480
784.987,0.07556
761.843,0.08057
738.698,0.07713
715.553,0.07627
692.409,0.07660
669.264,0.07470
646.12,0.07312
622.975,0.06896
599.83,0.06893