Folder: fsri_materials_database/01_Data/PC/FTIR/IS (part 3)

File: PC_1.52_S_IS_230516_R3.dpt
7496.92,0.07957
7473.77,0.05616
7450.63,0.07121
7427.48,0.09948
7404.34,0.05209
7381.19,0.05715
7358.05,0.09306
7334.9,0.09360
7311.76,0.06986
7288.62,0.08572
7265.47,0.09033
7242.33,0.06684
7219.18,0.09430
7196.04,0.09494
7172.89,0.08201
7149.75,0.09012
7126.6,0.09243
7103.46,0.08795
7080.31,0.09670
7057.17,0.10456
7034.02,0.09233
7010.88,0.08270
6987.74,0.10871
6964.59,0.10184
6941.45,0.08054
6918.3,0.10308
6895.16,0.09229
6872.01,0.10933
6848.87,0.08868
6825.72,0.09655
6802.58,0.09541
6779.43,0.11102
6756.29,0.11184
6733.15,0.09335
6710,0.10668
6686.86,0.10437
6663.71,0.10646
6640.57,0.10785
6617.42,0.10461
6594.28,0.10740
6571.13,0.10963
6547.99,0.11217
6524.84,0.10408
6501.7,0.11197
6478.55,0.11493
6455.41,0.12051
6432.27,0.11876
6409.12,0.11243
6385.98,0.11676
6362.83,0.10853
6339.69,0.10616
6316.54,0.11825
6293.4,0.11317
6270.25,0.11755
6247.11,0.11229
6223.96,0.10894
6200.82,0.09943
6177.68,0.10192
6154.53,0.09758
6131.39,0.09260
6108.24,0.08860
6085.1,0.07115
6061.95,0.06134
6038.81,0.06069
6015.66,0.04448
5992.52,0.04026
5969.37,0.05117
5946.23,0.05040
5923.08,0.04669
5899.94,0.05407
5876.8,0.06001
5853.65,0.07902
5830.51,0.07907
5807.36,0.08504
5784.22,0.08147
5761.07,0.07631
5737.93,0.09137
5714.78,0.09742
5691.64,0.09728
5668.49,0.09846
5645.35,0.09533
5622.21,0.10587
5599.06,0.10951
5575.92,0.11118
5552.77,0.11107
5529.63,0.10634
5506.48,0.11082
5483.34,0.11105
5460.19,0.10939
5437.05,0.11347
5413.9,0.11527
5390.76,0.11153
5367.61,0.11561
5344.47,0.10976
5321.33,0.11389
5298.18,0.11134
5275.04,0.10022
5251.89,0.10353
5228.75,0.11600
5205.6,0.11602
5182.46,0.11885
5159.31,0.12077
5136.17,0.11929
5113.02,0.12336
5089.88,0.12441
5066.74,0.12127
5043.59,0.12330
5020.45,0.12303
4997.3,0.12298
4974.16,0.12166
4951.01,0.12068
4927.87,0.11977
4904.72,0.11361
4881.58,0.10834
4858.43,0.10439
4835.29,0.10275
4812.14,0.10599
4789,0.10667
4765.86,0.10080
4742.71,0.08970
4719.57,0.07056
4696.42,0.05626
4673.28,0.05464
4650.13,0.05644
4626.99,0.05504
4603.84,0.07077
4580.7,0.06432
4557.55,0.07618
4534.41,0.08357
4511.27,0.08372
4488.12,0.07334
4464.98,0.07023
4441.83,0.06197
4418.69,0.05616
4395.54,0.05609
4372.4,0.05464
4349.25,0.05513
4326.11,0.05547
4302.96,0.05551
4279.82,0.05586
4256.67,0.05744
4233.53,0.05695
4210.39,0.05682
4187.24,0.05686
4164.1,0.05639
4140.95,0.05855
4117.81,0.05679
4094.66,0.05606
4071.52,0.05678
4048.37,0.05648
4025.23,0.05959
4002.08,0.05927
3978.94,0.05877
3955.8,0.06104
3932.65,0.05957
3909.51,0.05895
3886.36,0.05889
3863.22,0.06092
3840.07,0.06749
3816.93,0.06735
3793.78,0.07093
3770.64,0.07221
3747.49,0.06535
3724.35,0.06677
3701.2,0.06022
3678.06,0.05750
3654.92,0.05833
3631.77,0.05989
3608.63,0.06311
3585.48,0.05896
3562.34,0.05883
3539.19,0.05689
3516.05,0.05786
3492.9,0.05885
3469.76,0.06085
3446.61,0.06528
3423.47,0.06965
3400.33,0.06909
3377.18,0.06448
3354.04,0.06466
3330.89,0.06299
3307.75,0.06085
3284.6,0.05900
3261.46,0.05787
3238.31,0.05819
3215.17,0.05795
3192.02,0.05821
3168.88,0.05753
3145.73,0.05850
3122.59,0.05827
3099.45,0.05877
3076.3,0.05768
3053.16,0.05870
3030.01,0.05849
3006.87,0.05812
2983.72,0.05696
2960.58,0.06050
2937.43,0.06061
2914.29,0.06034
2891.14,0.06013
2868,0.06069
2844.86,0.06087
2821.71,0.06051
2798.57,0.06094
2775.42,0.06015
2752.28,0.06070
2729.13,0.06066
2705.99,0.06100
2682.84,0.06313
2659.7,0.06342
2636.55,0.06728
2613.41,0.06145
2590.26,0.06050
2567.12,0.06205
2543.98,0.06216
2520.83,0.06108
2497.69,0.06039
2474.54,0.06080
2451.4,0.06040
2428.25,0.06078
2405.11,0.06052
2381.96,0.06070
2358.82,0.06108
2335.67,0.06048
2312.53,0.06036
2289.39,0.06041
2266.24,0.06008
2243.1,0.06035
2219.95,0.06011
2196.81,0.06051
2173.66,0.06030
2150.52,0.06107
2127.37,0.06004
2104.23,0.05966
2081.08,0.05991
2057.94,0.05978
2034.79,0.05976
2011.65,0.05944
1988.51,0.05930
1965.36,0.05885
1942.22,0.05853
1919.07,0.05776
1895.93,0.05731
1872.78,0.05678
1849.64,0.05551
1826.49,0.05275
1803.35,0.04638
1780.2,0.06002
1757.06,0.07862
1733.92,0.06632
1710.77,0.06329
1687.63,0.06119
1664.48,0.05930
1641.34,0.05879
1618.19,0.05762
1595.05,0.05824
1571.9,0.05635
1548.76,0.05385
1525.61,0.04885
1502.47,0.07182
1479.32,0.06222
1456.18,0.06005
1433.04,0.05623
1409.89,0.05398
1386.75,0.05280
1363.6,0.05155
1340.46,0.04749
1317.31,0.04014
1294.17,0.03402
1271.02,0.02176
1247.88,0.09537
1224.73,0.13916
1201.59,0.09113
1178.45,0.11108
1155.3,0.13788
1132.16,0.09864
1109.01,0.08718
1085.87,0.07763
1062.72,0.08391
1039.58,0.07615
1016.43,0.07839
993.288,0.08630
970.144,0.07996
946.999,0.07617
923.855,0.07487
900.71,0.07121
877.565,0.07505
854.421,0.06567
831.276,0.07721
808.132,0.08473
784.987,0.07423
761.843,0.07973
738.698,0.07675
715.553,0.07535
692.409,0.07697
669.264,0.07408
646.12,0.07317
622.975,0.07080
599.83,0.06865

File: PC_1.52_T_IS_230516_R1.dpt
7496.92,0.06352
7473.77,0.03189
7450.63,0.07019
7427.48,0.05737
7404.34,0.03070
7381.19,0.06741
7358.05,0.08305
7334.9,0.05266
7311.76,0.08282
7288.62,0.04421
7265.47,0.04233
7242.33,0.04253
7219.18,0.03226
7196.04,0.03196
7172.89,0.04630
7149.75,0.05418
7126.6,0.03388
7103.46,0.04629
7080.31,0.04379
7057.17,0.05768
7034.02,0.02578
7010.88,0.04401
6987.74,0.04603
6964.59,0.05278
6941.45,0.02602
6918.3,0.05046
6895.16,0.05083
6872.01,0.04076
6848.87,0.01455
6825.72,0.04262
6802.58,0.04556
6779.43,0.03611
6756.29,0.04262
6733.15,0.03668
6710,0.03763
6686.86,0.04565
6663.71,0.04613
6640.57,0.03350
6617.42,0.03874
6594.28,0.03780
6571.13,0.03475
6547.99,0.02962
6524.84,0.03009
6501.7,0.04664
6478.55,0.03113
6455.41,0.03260
6432.27,0.03480
6409.12,0.03354
6385.98,0.02996
6362.83,0.03983
6339.69,0.02992
6316.54,0.02795
6293.4,0.03122
6270.25,0.04135
6247.11,0.02921
6223.96,0.03296
6200.82,0.02796
6177.68,0.03010
6154.53,0.03241
6131.39,0.02333
6108.24,0.03313
6085.1,0.02627
6061.95,0.03438
6038.81,0.03519
6015.66,0.03225
5992.52,0.02916
5969.37,0.02873
5946.23,0.02869
5923.08,0.02694
5899.94,0.02997
5876.8,0.02536
5853.65,0.03117
5830.51,0.02773
5807.36,0.03063
5784.22,0.02273
5761.07,0.03136
5737.93,0.03192
5714.78,0.02437
5691.64,0.03036
5668.49,0.02947
5645.35,0.02567
5622.21,0.02723
5599.06,0.02813
5575.92,0.02491
5552.77,0.03121
5529.63,0.02437
5506.48,0.03032
5483.34,0.02760
5460.19,0.02953
5437.05,0.02636
5413.9,0.02725
5390.76,0.02528
5367.61,0.02835
5344.47,0.02802
5321.33,0.02486
5298.18,0.02671
5275.04,0.02581
5251.89,0.02327
5228.75,0.02479
5205.6,0.02548
5182.46,0.02510
5159.31,0.02656
5136.17,0.02532
5113.02,0.02268
5089.88,0.02561
5066.74,0.02612
5043.59,0.02406
5020.45,0.02261
4997.3,0.02619
4974.16,0.02491
4951.01,0.02472
4927.87,0.02529
4904.72,0.02543
4881.58,0.02512
4858.43,0.02433
4835.29,0.02517
4812.14,0.02347
4789,0.02531
4765.86,0.02413
4742.71,0.02464
4719.57,0.02379
4696.42,0.02422
4673.28,0.02377
4650.13,0.02356
4626.99,0.02281
4603.84,0.02313
4580.7,0.02436
4557.55,0.02301
4534.41,0.02407
4511.27,0.02437
4488.12,0.02335
4464.98,0.02318
4441.83,0.02373
4418.69,0.02319
4395.54,0.02296
4372.4,0.02382
4349.25,0.02364
4326.11,0.02238
4302.96,0.02381
4279.82,0.02318
4256.67,0.02391
4233.53,0.02441
4210.39,0.02473
4187.24,0.02286
4164.1,0.02297
4140.95,0.02391
4117.81,0.02359
4094.66,0.02413
4071.52,0.02452
4048.37,0.02354
4025.23,0.02334
4002.08,0.02329
3978.94,0.02305
3955.8,0.02398
3932.65,0.02454
3909.51,0.02325
3886.36,0.02437
3863.22,0.02390
3840.07,0.02369
3816.93,0.02359
3793.78,0.02344
3770.64,0.02393
3747.49,0.02539
3724.35,0.02342
3701.2,0.02346
3678.06,0.02350
3654.92,0.02270
3631.77,0.02271
3608.63,0.02288
3585.48,0.02200
3562.34,0.02191
3539.19,0.02257
3516.05,0.02232
3492.9,0.02139
3469.76,0.02134
3446.61,0.02149
3423.47,0.02124
3400.33,0.02220
3377.18,0.02135
3354.04,0.02187
3330.89,0.02167
3307.75,0.02230
3284.6,0.02175
3261.46,0.02213
3238.31,0.02196
3215.17,0.02157
3192.02,0.02186
3168.88,0.02260
3145.73,0.02194
3122.59,0.02166
3099.45,0.02176
3076.3,0.02160
3053.16,0.02219
3030.01,0.02233
3006.87,0.02209
2983.72,0.02126
2960.58,0.02155
2937.43,0.02113
2914.29,0.02156
2891.14,0.02142
2868,0.02178
2844.86,0.02233
2821.71,0.02284
2798.57,0.02219
2775.42,0.02281
2752.28,0.02297
2729.13,0.02274
2705.99,0.02243
2682.84,0.02270
2659.7,0.02276
2636.55,0.02275
2613.41,0.02294
2590.26,0.02281
2567.12,0.02283
2543.98,0.02251
2520.83,0.02294
2497.69,0.02249
2474.54,0.02285
2451.4,0.02251
2428.25,0.02293
2405.11,0.02320
2381.96,0.02315
2358.82,0.02366
2335.67,0.02298
2312.53,0.02281
2289.39,0.02286
2266.24,0.02277
2243.1,0.02258
2219.95,0.02281
2196.81,0.02287
2173.66,0.02290
2150.52,0.02311
2127.37,0.02265
2104.23,0.02287
2081.08,0.02269
2057.94,0.02259
2034.79,0.02294
2011.65,0.02265
1988.51,0.02299
1965.36,0.02271
1942.22,0.02241
1919.07,0.02277
1895.93,0.02266
1872.78,0.02239
1849.64,0.02248
1826.49,0.02244
1803.35,0.02131
1780.2,0.02103
1757.06,0.01974
1733.92,0.02121
1710.77,0.02213
1687.63,0.02111
1664.48,0.02040
1641.34,0.02027
1618.19,0.02082
1595.05,0.02077
1571.9,0.02012
1548.76,0.01983
1525.61,0.02117
1502.47,0.02047
1479.32,0.02083
1456.18,0.02049
1433.04,0.02072
1409.89,0.01994
1386.75,0.01940
1363.6,0.01975
1340.46,0.01971
1317.31,0.01882
1294.17,0.01948
1271.02,0.02096
1247.88,0.02177
1224.73,0.02115
1201.59,0.02048
1178.45,0.01979
1155.3,0.01904
1132.16,0.01942
1109.01,0.02028
1085.87,0.02009
1062.72,0.02167
1039.58,0.02154
1016.43,0.02077
993.288,0.02306
970.144,0.02237
946.999,0.02151
923.855,0.02153
900.71,0.02094
877.565,0.02107
854.421,0.02096
831.276,0.02040
808.132,0.02070
784.987,0.01942
761.843,0.02032
738.698,0.01934
715.553,0.01928
692.409,0.01996
669.264,0.01815
646.12,0.01963
622.975,0.01824
599.83,0.01651

File: PC_1.52_T_IS_230516_R2.dpt
7496.92,0.03862
7473.77,0.05577
7450.63,0.02668
7427.48,0.05100
7404.34,0.06950
7381.19,0.06871
7358.05,0.04426
7334.9,0.04350
7311.76,0.04777
7288.62,0.03470
7265.47,0.06061
7242.33,0.02789
7219.18,0.05290
7196.04,0.03032
7172.89,0.07212
7149.75,0.04709
7126.6,0.08363
7103.46,0.02632
7080.31,0.03260
7057.17,0.05134
7034.02,0.05171
7010.88,0.05166
6987.74,0.04561
6964.59,0.03989
6941.45,0.03616
6918.3,0.04848
6895.16,0.04000
6872.01,0.04828
6848.87,0.02944
6825.72,0.03511
6802.58,0.03501
6779.43,0.03788
6756.29,0.03154
6733.15,0.02833
6710,0.03459
6686.86,0.04543
6663.71,0.03574
6640.57,0.03681
6617.42,0.03526
6594.28,0.03332
6571.13,0.03136
6547.99,0.03747
6524.84,0.04774
6501.7,0.04174
6478.55,0.04014
6455.41,0.04626
6432.27,0.02958
6409.12,0.03214
6385.98,0.03659
6362.83,0.03463
6339.69,0.04198
6316.54,0.03810
6293.4,0.03200
6270.25,0.02904
6247.11,0.03037
6223.96,0.03742
6200.82,0.03187
6177.68,0.03079
6154.53,0.02353
6131.39,0.03284
6108.24,0.03375
6085.1,0.03251
6061.95,0.02834
6038.81,0.04041
6015.66,0.03299
5992.52,0.03201
5969.37,0.03618
5946.23,0.02644
5923.08,0.02936
5899.94,0.02858
5876.8,0.02873
5853.65,0.02687
5830.51,0.02578
5807.36,0.02555
5784.22,0.03024
5761.07,0.02530
5737.93,0.02800
5714.78,0.02618
5691.64,0.02628
5668.49,0.02703
5645.35,0.03084
5622.21,0.02297
5599.06,0.02350
5575.92,0.02727
5552.77,0.02736
5529.63,0.02729
5506.48,0.02437
5483.34,0.02441
5460.19,0.02756
5437.05,0.02968
5413.9,0.02736
5390.76,0.02607
5367.61,0.02451
5344.47,0.02473
5321.33,0.02609
5298.18,0.02705
5275.04,0.02698
5251.89,0.02512
5228.75,0.02453
5205.6,0.02339
5182.46,0.02494
5159.31,0.02583
5136.17,0.02454
5113.02,0.02289
5089.88,0.02290
5066.74,0.02456
5043.59,0.02670
5020.45,0.02416
4997.3,0.02323
4974.16,0.02664
4951.01,0.02353
4927.87,0.02497
4904.72,0.02215
4881.58,0.02673
4858.43,0.02414
4835.29,0.02523
4812.14,0.02493
4789,0.02449
4765.86,0.02650
4742.71,0.02298
4719.57,0.02459
4696.42,0.02361
4673.28,0.02376
4650.13,0.02375
4626.99,0.02321
4603.84,0.02339
4580.7,0.02344
4557.55,0.02399
4534.41,0.02376
4511.27,0.02478
4488.12,0.02353
4464.98,0.02236
4441.83,0.02435
4418.69,0.02497
4395.54,0.02382
4372.4,0.02359
4349.25,0.02340
4326.11,0.02348
4302.96,0.02263
4279.82,0.02426
4256.67,0.02451
4233.53,0.02441
4210.39,0.02342
4187.24,0.02324
4164.1,0.02381
4140.95,0.02344
4117.81,0.02465
4094.66,0.02414
4071.52,0.02340
4048.37,0.02366
4025.23,0.02331
4002.08,0.02387
3978.94,0.02423
3955.8,0.02367
3932.65,0.02279
3909.51,0.02366
3886.36,0.02417
3863.22,0.02321
3840.07,0.02493
3816.93,0.02421
3793.78,0.02462
3770.64,0.02411
3747.49,0.02418
3724.35,0.02347
3701.2,0.02416
3678.06,0.02347
3654.92,0.02426
3631.77,0.02311
3608.63,0.02238
3585.48,0.02241
3562.34,0.02307
3539.19,0.02180
3516.05,0.02170
3492.9,0.02140
3469.76,0.02199
3446.61,0.02151
3423.47,0.02199
3400.33,0.02148
3377.18,0.02127
3354.04,0.02134
3330.89,0.02131
3307.75,0.02156
3284.6,0.02100
3261.46,0.02157
3238.31,0.02154
3215.17,0.02202
3192.02,0.02132
3168.88,0.02154
3145.73,0.02269
3122.59,0.02233
3099.45,0.02183
3076.3,0.02153
3053.16,0.02231
3030.01,0.02188
3006.87,0.02173
2983.72,0.02144
2960.58,0.02114
2937.43,0.02127
2914.29,0.02168
2891.14,0.02261
2868,0.02196
2844.86,0.02259
2821.71,0.02245
2798.57,0.02320
2775.42,0.02265
2752.28,0.02248
2729.13,0.02202
2705.99,0.02245
2682.84,0.02289
2659.7,0.02218
2636.55,0.02265
2613.41,0.02313
2590.26,0.02267
2567.12,0.02211
2543.98,0.02306
2520.83,0.02282
2497.69,0.02259
2474.54,0.02328
2451.4,0.02278
2428.25,0.02287
2405.11,0.02300
2381.96,0.02326
2358.82,0.02397
2335.67,0.02352
2312.53,0.02281
2289.39,0.02344
2266.24,0.02287
2243.1,0.02298
2219.95,0.02292
2196.81,0.02249
2173.66,0.02287
2150.52,0.02273
2127.37,0.02274
2104.23,0.02257
2081.08,0.02300
2057.94,0.02302
2034.79,0.02276
2011.65,0.02317
1988.51,0.02298
1965.36,0.02299
1942.22,0.02274
1919.07,0.02267
1895.93,0.02266
1872.78,0.02260
1849.64,0.02244
1826.49,0.02222
1803.35,0.02208
1780.2,0.02109
1757.06,0.01977
1733.92,0.02116
1710.77,0.02212
1687.63,0.02105
1664.48,0.02054
1641.34,0.02046
1618.19,0.02123
1595.05,0.02075
1571.9,0.02026
1548.76,0.02045
1525.61,0.02059
1502.47,0.02100
1479.32,0.02072
1456.18,0.02081
1433.04,0.02041
1409.89,0.02021
1386.75,0.02013
1363.6,0.01988
1340.46,0.01956
1317.31,0.01878
1294.17,0.01955
1271.02,0.02102
1247.88,0.02198
1224.73,0.02123
1201.59,0.02054
1178.45,0.02006
1155.3,0.01952
1132.16,0.01951
1109.01,0.02015
1085.87,0.01964
1062.72,0.02134
1039.58,0.02131
1016.43,0.02184
993.288,0.02380
970.144,0.02251
946.999,0.02182
923.855,0.02160
900.71,0.02147
877.565,0.02093
854.421,0.02009
831.276,0.02040
808.132,0.02114
784.987,0.01987
761.843,0.01994
738.698,0.02018
715.553,0.02012
692.409,0.01908
669.264,0.01967
646.12,0.01965
622.975,0.01865
599.83,0.01628

File: PC_1.52_T_IS_230516_R3.dpt
7496.92,0.04959
7473.77,0.05375
7450.63,0.04625
7427.48,0.06191
7404.34,0.05242
7381.19,0.02684
7358.05,0.03909
7334.9,0.05982
7311.76,0.03960
7288.62,0.06383
7265.47,0.04746
7242.33,0.05085
7219.18,0.05872
7196.04,0.02901
7172.89,0.03835
7149.75,0.05895
7126.6,0.05390
7103.46,0.04748
7080.31,0.03946
7057.17,0.04617
7034.02,0.05178
7010.88,0.02665
6987.74,0.04874
6964.59,0.04852
6941.45,0.03387
6918.3,0.03937
6895.16,0.04217
6872.01,0.04443
6848.87,0.02433
6825.72,0.03084
6802.58,0.04855
6779.43,0.04087
6756.29,0.04858
6733.15,0.04536
6710,0.03658
6686.86,0.03533
6663.71,0.03822
6640.57,0.04608
6617.42,0.03879
6594.28,0.03568
6571.13,0.02974
6547.99,0.03817
6524.84,0.02211
6501.7,0.03794
6478.55,0.02472
6455.41,0.04382
6432.27,0.03440
6409.12,0.03092
6385.98,0.03782
6362.83,0.03732
6339.69,0.03530
6316.54,0.02341
6293.4,0.04137
6270.25,0.03461
6247.11,0.02885
6223.96,0.03083
6200.82,0.02948
6177.68,0.03215
6154.53,0.03561
6131.39,0.02304
6108.24,0.03255
6085.1,0.02879
6061.95,0.03374
6038.81,0.03066
6015.66,0.03222
5992.52,0.02737
5969.37,0.02963
5946.23,0.02722
5923.08,0.03060
5899.94,0.02505
5876.8,0.03445
5853.65,0.02957
5830.51,0.02708
5807.36,0.02689
5784.22,0.02817
5761.07,0.02524
5737.93,0.03102
5714.78,0.02629
5691.64,0.02540
5668.49,0.03150
5645.35,0.03059
5622.21,0.02755
5599.06,0.02615
5575.92,0.02647
5552.77,0.02681
5529.63,0.02426
5506.48,0.02714
5483.34,0.03027
5460.19,0.02698
5437.05,0.02819
5413.9,0.02674
5390.76,0.02677
5367.61,0.02830
5344.47,0.02178
5321.33,0.02693
5298.18,0.02409
5275.04,0.02446
5251.89,0.02633
5228.75,0.02796
5205.6,0.02726
5182.46,0.02307
5159.31,0.02511
5136.17,0.02475
5113.02,0.02528
5089.88,0.02426
5066.74,0.02355
5043.59,0.02466
5020.45,0.02590
4997.3,0.02373
4974.16,0.02486
4951.01,0.02503
4927.87,0.02572
4904.72,0.02265
4881.58,0.02533
4858.43,0.02468
4835.29,0.02395
4812.14,0.02521
4789,0.02485
4765.86,0.02475
4742.71,0.02573
4719.57,0.02560
4696.42,0.02259
4673.28,0.02359
4650.13,0.02459
4626.99,0.02110
4603.84,0.02378
4580.7,0.02407
4557.55,0.02434
4534.41,0.02466
4511.27,0.02522
4488.12,0.02395
4464.98,0.02282
4441.83,0.02322
4418.69,0.02215
4395.54,0.02395
4372.4,0.02343
4349.25,0.02419
4326.11,0.02301
4302.96,0.02360
4279.82,0.02251
4256.67,0.02226
4233.53,0.02415
4210.39,0.02341
4187.24,0.02409
4164.1,0.02306
4140.95,0.02370
4117.81,0.02486
4094.66,0.02337
4071.52,0.02272
4048.37,0.02452
4025.23,0.02274
4002.08,0.02348
3978.94,0.02451
3955.8,0.02413
3932.65,0.02309
3909.51,0.02392
3886.36,0.02327
3863.22,0.02350
3840.07,0.02475
3816.93,0.02346
3793.78,0.02394
3770.64,0.02358
3747.49,0.02426
3724.35,0.02477
3701.2,0.02346
3678.06,0.02390
3654.92,0.02384
3631.77,0.02285
3608.63,0.02419
3585.48,0.02304
3562.34,0.02125
3539.19,0.02222
3516.05,0.02202
3492.9,0.02169
3469.76,0.02265
3446.61,0.02183
3423.47,0.02153
3400.33,0.02171
3377.18,0.02155
3354.04,0.02166
3330.89,0.02277
3307.75,0.02084
3284.6,0.02109
3261.46,0.02198
3238.31,0.02151
3215.17,0.02224
3192.02,0.02237
3168.88,0.02208
3145.73,0.02305
3122.59,0.02242
3099.45,0.02214
3076.3,0.02247
3053.16,0.02250
3030.01,0.02221
3006.87,0.02218
2983.72,0.02080
2960.58,0.02136
2937.43,0.02124
2914.29,0.02212
2891.14,0.02190
2868,0.02203
2844.86,0.02271
2821.71,0.02277
2798.57,0.02290
2775.42,0.02221
2752.28,0.02303
2729.13,0.02262
2705.99,0.02262
2682.84,0.02255
2659.7,0.02310
2636.55,0.02288
2613.41,0.02309
2590.26,0.02309
2567.12,0.02278
2543.98,0.02301
2520.83,0.02304
2497.69,0.02247
2474.54,0.02315
2451.4,0.02301
2428.25,0.02304
2405.11,0.02292
2381.96,0.02279
2358.82,0.02348
2335.67,0.02332
2312.53,0.02302
2289.39,0.02320
2266.24,0.02272
2243.1,0.02257
2219.95,0.02280
2196.81,0.02232
2173.66,0.02320
2150.52,0.02290
2127.37,0.02277
2104.23,0.02319
2081.08,0.02265
2057.94,0.02288
2034.79,0.02290
2011.65,0.02310
1988.51,0.02284
1965.36,0.02271
1942.22,0.02276
1919.07,0.02320
1895.93,0.02302
1872.78,0.02306
1849.64,0.02251
1826.49,0.02249
1803.35,0.02193
1780.2,0.02157
1757.06,0.01967
1733.92,0.02098
1710.77,0.02306
1687.63,0.02084
1664.48,0.02016
1641.34,0.02056
1618.19,0.02064
1595.05,0.02057
1571.9,0.02049
1548.76,0.02075
1525.61,0.02111
1502.47,0.02083
1479.32,0.02045
1456.18,0.02023
1433.04,0.02057
1409.89,0.02049
1386.75,0.02032
1363.6,0.02019
1340.46,0.01985
1317.31,0.01882
1294.17,0.01921
1271.02,0.02078
1247.88,0.02178
1224.73,0.02114
1201.59,0.02052
1178.45,0.01962
1155.3,0.01929
1132.16,0.01974
1109.01,0.02045
1085.87,0.01932
1062.72,0.02193
1039.58,0.02141
1016.43,0.02120
993.288,0.02292
970.144,0.02187
946.999,0.02197
923.855,0.02170
900.71,0.02164
877.565,0.02094
854.421,0.02023
831.276,0.02169
808.132,0.02147
784.987,0.02103
761.843,0.01931
738.698,0.01979
715.553,0.02000
692.409,0.02052
669.264,0.02055
646.12,0.01960
622.975,0.01723
599.83,0.01540

File: PC_1.52_Trans_S_IS_230516_R1.dpt
7496.92,0.91329
7473.77,0.89580
7450.63,0.87924
7427.48,0.87087
7404.34,0.90910
7381.19,0.80383
7358.05,0.83367
7334.9,0.81658
7311.76,0.81681
7288.62,0.82758
7265.47,0.82552
7242.33,0.83231
7219.18,0.82023
7196.04,0.81977
7172.89,0.81718
7149.75,0.83183
7126.6,0.84811
7103.46,0.81350
7080.31,0.86355
7057.17,0.81087
7034.02,0.84122
7010.88,0.85415
6987.74,0.84093
6964.59,0.85697
6941.45,0.85077
6918.3,0.87822
6895.16,0.85072
6872.01,0.86383
6848.87,0.84721
6825.72,0.86957
6802.58,0.87028
6779.43,0.86912
6756.29,0.85816
6733.15,0.86994
6710,0.87766
6686.86,0.87573
6663.71,0.87367
6640.57,0.90261
6617.42,0.89385
6594.28,0.90129
6571.13,0.88980
6547.99,0.89140
6524.84,0.89237
6501.7,0.89138
6478.55,0.89398
6455.41,0.88522
6432.27,0.89529
6409.12,0.88998
6385.98,0.87988
6362.83,0.88308
6339.69,0.88473
6316.54,0.88663
6293.4,0.86415
6270.25,0.87609
6247.11,0.85964
6223.96,0.85201
6200.82,0.83903
6177.68,0.79386
6154.53,0.77825
6131.39,0.73389
6108.24,0.69788
6085.1,0.59582
6061.95,0.52173
6038.81,0.42328
6015.66,0.26220
5992.52,0.19026
5969.37,0.35540
5946.23,0.39396
5923.08,0.36817
5899.94,0.41957
5876.8,0.49391
5853.65,0.60828
5830.51,0.62681
5807.36,0.64108
5784.22,0.61330
5761.07,0.58505
5737.93,0.66099
5714.78,0.73441
5691.64,0.74244
5668.49,0.69757
5645.35,0.71808
5622.21,0.77381
5599.06,0.78634
5575.92,0.78467
5552.77,0.77587
5529.63,0.77652
5506.48,0.76787
5483.34,0.76531
5460.19,0.75710
5437.05,0.77326
5413.9,0.76667
5390.76,0.77618
5367.61,0.78396
5344.47,0.76224
5321.33,0.77815
5298.18,0.76498
5275.04,0.69997
5251.89,0.69706
5228.75,0.76879
5205.6,0.78349
5182.46,0.78898
5159.31,0.79266
5136.17,0.80205
5113.02,0.80899
5089.88,0.80521
5066.74,0.80646
5043.59,0.80756
5020.45,0.80132
4997.3,0.79300
4974.16,0.78504
4951.01,0.77901
4927.87,0.77171
4904.72,0.73449
4881.58,0.71301
4858.43,0.68552
4835.29,0.67587
4812.14,0.69241
4789,0.68339
4765.86,0.64114
4742.71,0.56400
4719.57,0.39636
4696.42,0.16690
4673.28,0.13556
4650.13,0.18826
4626.99,0.13774
4603.84,0.39413
4580.7,0.32379
4557.55,0.43801
4534.41,0.49368
4511.27,0.49490
4488.12,0.40463
4464.98,0.37272
4441.83,0.26561
4418.69,0.11620
4395.54,0.10404
4372.4,0.08405
4349.25,0.05559
4326.11,0.03499
4302.96,0.05572
4279.82,0.07706
4256.67,0.10641
4233.53,0.10617
4210.39,0.08753
4187.24,0.07599
4164.1,0.07420
4140.95,0.13358
4117.81,0.11406
4094.66,0.01772
4071.52,0.00231
4048.37,0.05690
4025.23,0.13697
4002.08,0.13426
3978.94,0.13003
3955.8,0.16694
3932.65,0.14980
3909.51,0.12535
3886.36,0.09553
3863.22,0.17663
3840.07,0.24623
3816.93,0.25037
3793.78,0.29834
3770.64,0.31169
3747.49,0.20462
3724.35,0.23374
3701.2,0.11237
3678.06,0.00962
3654.92,0.03891
3631.77,0.14503
3608.63,0.21160
3585.48,0.04499
3562.34,0.02203
3539.19,0.00582
3516.05,0.01848
3492.9,0.10727
3469.76,0.16312
3446.61,0.23653
3423.47,0.29738
3400.33,0.29323
3377.18,0.23091
3354.04,0.22957
3330.89,0.21568
3307.75,0.14081
3284.6,0.09794
3261.46,0.07474
3238.31,0.05607
3215.17,0.03515
3192.02,0.01120
3168.88,0.01204
3145.73,0.00529
3122.59,0.00037
3099.45,0.00061
3076.3,0.00003
3053.16,0.00020
3030.01,0.00080
3006.87,0.00058
2983.72,0.00036
2960.58,0.00021
2937.43,0.00026
2914.29,0.00024
2891.14,0.00067
2868,0.00025
2844.86,0.00133
2821.71,0.01560
2798.57,0.01884
2775.42,0.00752
2752.28,0.06699
2729.13,0.04974
2705.99,0.07335
2682.84,0.13549
2659.7,0.13192
2636.55,0.18189
2613.41,0.05530
2590.26,0.04730
2567.12,0.09315
2543.98,0.08283
2520.83,0.06240
2497.69,0.02664
2474.54,0.00468
2451.4,0.00424
2428.25,0.00335
2405.11,0.00120
2381.96,0.00627
2358.82,0.02183
2335.67,0.01601
2312.53,0.01679
2289.39,0.01199
2266.24,0.00137
2243.1,0.00037
2219.95,0.00004
2196.81,0.00014
2173.66,0.00662
2150.52,0.05315
2127.37,0.02193
2104.23,0.00553
2081.08,0.00024
2057.94,0.00027
2034.79,0.00059
2011.65,0.00052
1988.51,0.00048
1965.36,0.00354
1942.22,0.00104
1919.07,0.00019
1895.93,0.00032
1872.78,0.00031
1849.64,0.00025
1826.49,0.00063
1803.35,0.00032
1780.2,0.00026
1757.06,0.00021
1733.92,0.00042
1710.77,0.00013
1687.63,0.00069
1664.48,0.00024
1641.34,0.00029
1618.19,0.00042
1595.05,0.00033
1571.9,0.00044
1548.76,0.00009
1525.61,0.00023
1502.47,0.00040
1479.32,0.00041
1456.18,0.00048
1433.04,0.00037
1409.89,0.00053
1386.75,0.00010
1363.6,0.00007
1340.46,0.00050
1317.31,0.00037
1294.17,0.00033
1271.02,0.00032
1247.88,0.00019
1224.73,0.00065
1201.59,0.00012
1178.45,0.00010
1155.3,0.00058
1132.16,0.00071
1109.01,0.00034
1085.87,0.00035
1062.72,0.00063
1039.58,0.00039
1016.43,0.00047
993.288,-0.00004
970.144,-0.00006
946.999,0.00041
923.855,0.00025
900.71,0.00062
877.565,0.00093
854.421,0.00090
831.276,0.00084
808.132,0.00049
784.987,0.00045
761.843,0.00087
738.698,0.00016
715.553,0.00127
692.409,0.00117
669.264,0.00338
646.12,0.00407
622.975,0.00135
599.83,0.00194