Folder: fsri_materials_database/01_Data/PC/FTIR/IS (part 4)

File: PC_1.52_Trans_S_IS_230516_R2.dpt
7496.92,0.87890
7473.77,0.89139
7450.63,0.87406
7427.48,0.85007
7404.34,0.88355
7381.19,0.83629
7358.05,0.82594
7334.9,0.84094
7311.76,0.83244
7288.62,0.82763
7265.47,0.83275
7242.33,0.81243
7219.18,0.81065
7196.04,0.83145
7172.89,0.83175
7149.75,0.82330
7126.6,0.83569
7103.46,0.81020
7080.31,0.82008
7057.17,0.83485
7034.02,0.86103
7010.88,0.84673
6987.74,0.86058
6964.59,0.87137
6941.45,0.86340
6918.3,0.88294
6895.16,0.87534
6872.01,0.87640
6848.87,0.87608
6825.72,0.87564
6802.58,0.87092
6779.43,0.87679
6756.29,0.87815
6733.15,0.87236
6710,0.88552
6686.86,0.88580
6663.71,0.88726
6640.57,0.89527
6617.42,0.88545
6594.28,0.89775
6571.13,0.90101
6547.99,0.90384
6524.84,0.88365
6501.7,0.89212
6478.55,0.89058
6455.41,0.89073
6432.27,0.89468
6409.12,0.89038
6385.98,0.88630
6362.83,0.89005
6339.69,0.88504
6316.54,0.88452
6293.4,0.88316
6270.25,0.87189
6247.11,0.87082
6223.96,0.85399
6200.82,0.84038
6177.68,0.80148
6154.53,0.78122
6131.39,0.74353
6108.24,0.69408
6085.1,0.60425
6061.95,0.52196
6038.81,0.42661
6015.66,0.26500
5992.52,0.18916
5969.37,0.35493
5946.23,0.39817
5923.08,0.36771
5899.94,0.42126
5876.8,0.49222
5853.65,0.60832
5830.51,0.63311
5807.36,0.64277
5784.22,0.61745
5761.07,0.58997
5737.93,0.66284
5714.78,0.73294
5691.64,0.74424
5668.49,0.70105
5645.35,0.72115
5622.21,0.77816
5599.06,0.79059
5575.92,0.78706
5552.77,0.77881
5529.63,0.78100
5506.48,0.77672
5483.34,0.77200
5460.19,0.75874
5437.05,0.77337
5413.9,0.76950
5390.76,0.77769
5367.61,0.78888
5344.47,0.76486
5321.33,0.78186
5298.18,0.76633
5275.04,0.70117
5251.89,0.70167
5228.75,0.77116
5205.6,0.78850
5182.46,0.79237
5159.31,0.79571
5136.17,0.80907
5113.02,0.81262
5089.88,0.81003
5066.74,0.80789
5043.59,0.80970
5020.45,0.80295
4997.3,0.79567
4974.16,0.78675
4951.01,0.78175
4927.87,0.77371
4904.72,0.73505
4881.58,0.71598
4858.43,0.68832
4835.29,0.67760
4812.14,0.69427
4789,0.68507
4765.86,0.64276
4742.71,0.56656
4719.57,0.39852
4696.42,0.16930
4673.28,0.13669
4650.13,0.18889
4626.99,0.13834
4603.84,0.39505
4580.7,0.32405
4557.55,0.43789
4534.41,0.49394
4511.27,0.49775
4488.12,0.40756
4464.98,0.37440
4441.83,0.26589
4418.69,0.11653
4395.54,0.10319
4372.4,0.08435
4349.25,0.05475
4326.11,0.03491
4302.96,0.05613
4279.82,0.07854
4256.67,0.10523
4233.53,0.10634
4210.39,0.08677
4187.24,0.07712
4164.1,0.07446
4140.95,0.13509
4117.81,0.11424
4094.66,0.01851
4071.52,0.00233
4048.37,0.05780
4025.23,0.13722
4002.08,0.13505
3978.94,0.13049
3955.8,0.16693
3932.65,0.14997
3909.51,0.12542
3886.36,0.09566
3863.22,0.17735
3840.07,0.24732
3816.93,0.25137
3793.78,0.30015
3770.64,0.31251
3747.49,0.20538
3724.35,0.23638
3701.2,0.11368
3678.06,0.00955
3654.92,0.04177
3631.77,0.14836
3608.63,0.21370
3585.48,0.04690
3562.34,0.02332
3539.19,0.00576
3516.05,0.01813
3492.9,0.10887
3469.76,0.16494
3446.61,0.23917
3423.47,0.29996
3400.33,0.29477
3377.18,0.23180
3354.04,0.23107
3330.89,0.21652
3307.75,0.14175
3284.6,0.09795
3261.46,0.07444
3238.31,0.05588
3215.17,0.03561
3192.02,0.01204
3168.88,0.01218
3145.73,0.00555
3122.59,0.00065
3099.45,0.00079
3076.3,0.00027
3053.16,0.00026
3030.01,0.00037
3006.87,0.00057
2983.72,0.00017
2960.58,0.00033
2937.43,0.00024
2914.29,0.00043
2891.14,0.00074
2868,0.00031
2844.86,0.00160
2821.71,0.01618
2798.57,0.01917
2775.42,0.00688
2752.28,0.06690
2729.13,0.05010
2705.99,0.07355
2682.84,0.13501
2659.7,0.13221
2636.55,0.18186
2613.41,0.05497
2590.26,0.04721
2567.12,0.09347
2543.98,0.08306
2520.83,0.06290
2497.69,0.02687
2474.54,0.00465
2451.4,0.00434
2428.25,0.00343
2405.11,0.00110
2381.96,0.00589
2358.82,0.02254
2335.67,0.01716
2312.53,0.01780
2289.39,0.01221
2266.24,0.00106
2243.1,0.00009
2219.95,0.00055
2196.81,0.00030
2173.66,0.00647
2150.52,0.05280
2127.37,0.02233
2104.23,0.00533
2081.08,0.00049
2057.94,0.00032
2034.79,0.00048
2011.65,0.00021
1988.51,0.00058
1965.36,0.00370
1942.22,0.00112
1919.07,0.00028
1895.93,0.00011
1872.78,0.00037
1849.64,0.00031
1826.49,0.00021
1803.35,0.00008
1780.2,0.00029
1757.06,0.00031
1733.92,0.00071
1710.77,0.00021
1687.63,0.00035
1664.48,0.00046
1641.34,0.00023
1618.19,0.00040
1595.05,0.00028
1571.9,0.00039
1548.76,0.00026
1525.61,0.00033
1502.47,0.00001
1479.32,0.00014
1456.18,0.00037
1433.04,0.00014
1409.89,0.00041
1386.75,0.00026
1363.6,0.00022
1340.46,0.00048
1317.31,0.00052
1294.17,0.00027
1271.02,0.00041
1247.88,0.00030
1224.73,0.00055
1201.59,0.00031
1178.45,0.00037
1155.3,0.00048
1132.16,0.00050
1109.01,0.00037
1085.87,0.00047
1062.72,0.00000
1039.58,0.00003
1016.43,0.00041
993.288,0.00041
970.144,0.00029
946.999,0.00057
923.855,0.00035
900.71,0.00015
877.565,0.00062
854.421,0.00032
831.276,0.00105
808.132,0.00060
784.987,-0.00008
761.843,0.00093
738.698,0.00075
715.553,0.00082
692.409,0.00070
669.264,0.00228
646.12,0.00420
622.975,0.00131
599.83,0.00306

File: PC_1.52_Trans_S_IS_230516_R3.dpt
7496.92,0.90408
7473.77,0.89477
7450.63,0.88666
7427.48,0.84335
7404.34,0.86652
7381.19,0.81533
7358.05,0.82216
7334.9,0.82537
7311.76,0.81788
7288.62,0.82402
7265.47,0.80975
7242.33,0.80649
7219.18,0.81872
7196.04,0.84017
7172.89,0.83342
7149.75,0.81294
7126.6,0.82878
7103.46,0.81310
7080.31,0.83837
7057.17,0.82767
7034.02,0.84179
7010.88,0.84409
6987.74,0.85513
6964.59,0.87194
6941.45,0.85577
6918.3,0.88104
6895.16,0.87634
6872.01,0.88136
6848.87,0.87796
6825.72,0.87464
6802.58,0.87392
6779.43,0.86123
6756.29,0.87627
6733.15,0.88104
6710,0.89729
6686.86,0.87684
6663.71,0.89034
6640.57,0.89995
6617.42,0.88781
6594.28,0.90837
6571.13,0.89532
6547.99,0.88846
6524.84,0.89140
6501.7,0.89602
6478.55,0.89665
6455.41,0.88991
6432.27,0.89329
6409.12,0.88901
6385.98,0.88513
6362.83,0.88364
6339.69,0.88100
6316.54,0.88456
6293.4,0.86988
6270.25,0.87719
6247.11,0.85928
6223.96,0.84914
6200.82,0.83500
6177.68,0.79447
6154.53,0.77775
6131.39,0.73959
6108.24,0.70691
6085.1,0.59684
6061.95,0.52101
6038.81,0.42464
6015.66,0.26608
5992.52,0.19380
5969.37,0.35463
5946.23,0.39610
5923.08,0.36633
5899.94,0.41922
5876.8,0.48796
5853.65,0.61194
5830.51,0.63405
5807.36,0.63865
5784.22,0.61761
5761.07,0.59233
5737.93,0.66095
5714.78,0.73523
5691.64,0.74291
5668.49,0.70118
5645.35,0.72138
5622.21,0.77427
5599.06,0.79033
5575.92,0.78331
5552.77,0.77848
5529.63,0.77682
5506.48,0.77510
5483.34,0.76893
5460.19,0.75905
5437.05,0.77554
5413.9,0.77093
5390.76,0.77790
5367.61,0.78892
5344.47,0.76406
5321.33,0.77959
5298.18,0.76433
5275.04,0.70253
5251.89,0.70359
5228.75,0.77043
5205.6,0.78642
5182.46,0.79268
5159.31,0.79433
5136.17,0.80748
5113.02,0.81049
5089.88,0.80811
5066.74,0.80805
5043.59,0.80999
5020.45,0.80411
4997.3,0.79521
4974.16,0.78496
4951.01,0.78100
4927.87,0.77252
4904.72,0.73598
4881.58,0.71534
4858.43,0.68749
4835.29,0.67597
4812.14,0.69464
4789,0.68366
4765.86,0.64187
4742.71,0.56385
4719.57,0.39830
4696.42,0.16822
4673.28,0.13671
4650.13,0.18796
4626.99,0.13808
4603.84,0.39456
4580.7,0.32231
4557.55,0.43675
4534.41,0.49376
4511.27,0.49616
4488.12,0.40764
4464.98,0.37421
4441.83,0.26656
4418.69,0.11747
4395.54,0.10374
4372.4,0.08464
4349.25,0.05550
4326.11,0.03547
4302.96,0.05550
4279.82,0.07792
4256.67,0.10616
4233.53,0.10661
4210.39,0.08733
4187.24,0.07641
4164.1,0.07401
4140.95,0.13413
4117.81,0.11380
4094.66,0.01862
4071.52,0.00247
4048.37,0.05772
4025.23,0.13699
4002.08,0.13506
3978.94,0.13030
3955.8,0.16737
3932.65,0.14997
3909.51,0.12498
3886.36,0.09700
3863.22,0.17800
3840.07,0.24794
3816.93,0.25199
3793.78,0.29968
3770.64,0.31339
3747.49,0.20737
3724.35,0.23874
3701.2,0.11456
3678.06,0.00961
3654.92,0.04214
3631.77,0.15046
3608.63,0.21632
3585.48,0.04785
3562.34,0.02299
3539.19,0.00596
3516.05,0.01737
3492.9,0.10881
3469.76,0.16534
3446.61,0.23918
3423.47,0.30065
3400.33,0.29504
3377.18,0.23144
3354.04,0.23088
3330.89,0.21608
3307.75,0.14087
3284.6,0.09824
3261.46,0.07448
3238.31,0.05649
3215.17,0.03500
3192.02,0.01191
3168.88,0.01191
3145.73,0.00512
3122.59,0.00039
3099.45,0.00051
3076.3,0.00032
3053.16,0.00046
3030.01,0.00067
3006.87,0.00012
2983.72,0.00020
2960.58,0.00078
2937.43,0.00027
2914.29,0.00027
2891.14,0.00012
2868,0.00057
2844.86,0.00151
2821.71,0.01542
2798.57,0.01906
2775.42,0.00685
2752.28,0.06652
2729.13,0.04974
2705.99,0.07329
2682.84,0.13514
2659.7,0.13188
2636.55,0.18110
2613.41,0.05520
2590.26,0.04721
2567.12,0.09269
2543.98,0.08281
2520.83,0.06260
2497.69,0.02686
2474.54,0.00460
2451.4,0.00395
2428.25,0.00324
2405.11,0.00111
2381.96,0.00612
2358.82,0.02456
2335.67,0.01727
2312.53,0.01795
2289.39,0.01220
2266.24,0.00146
2243.1,0.00011
2219.95,0.00022
2196.81,0.00006
2173.66,0.00628
2150.52,0.05262
2127.37,0.02229
2104.23,0.00543
2081.08,0.00006
2057.94,0.00018
2034.79,0.00054
2011.65,0.00034
1988.51,0.00043
1965.36,0.00379
1942.22,0.00101
1919.07,0.00020
1895.93,0.00039
1872.78,0.00034
1849.64,0.00038
1826.49,0.00026
1803.35,0.00023
1780.2,0.00034
1757.06,0.00019
1733.92,0.00058
1710.77,0.00039
1687.63,0.00018
1664.48,0.00008
1641.34,0.00027
1618.19,0.00024
1595.05,0.00034
1571.9,0.00044
1548.76,0.00049
1525.61,0.00022
1502.47,0.00019
1479.32,0.00032
1456.18,0.00074
1433.04,0.00016
1409.89,0.00022
1386.75,0.00031
1363.6,0.00042
1340.46,0.00016
1317.31,0.00046
1294.17,0.00000
1271.02,0.00017
1247.88,0.00039
1224.73,0.00051
1201.59,0.00038
1178.45,0.00034
1155.3,0.00036
1132.16,0.00066
1109.01,0.00080
1085.87,0.00082
1062.72,0.00117
1039.58,0.00019
1016.43,0.00036
993.288,0.00038
970.144,0.00026
946.999,0.00034
923.855,0.00023
900.71,0.00001
877.565,0.00041
854.421,0.00008
831.276,0.00059
808.132,0.00106
784.987,0.00062
761.843,0.00072
738.698,0.00052
715.553,0.00092
692.409,0.00097
669.264,0.00352
646.12,0.00533
622.975,0.00080
599.83,0.00147

File: PC_2.93_S_IS_230516_R1.dpt
7496.92,0.08085
7473.77,0.06267
7450.63,0.09175
7427.48,0.06657
7404.34,0.11357
7381.19,0.08727
7358.05,0.05695
7334.9,0.06918
7311.76,0.08717
7288.62,0.06172
7265.47,0.08846
7242.33,0.09095
7219.18,0.05993
7196.04,0.07181
7172.89,0.08779
7149.75,0.08573
7126.6,0.08158
7103.46,0.07901
7080.31,0.11043
7057.17,0.09725
7034.02,0.08195
7010.88,0.09612
6987.74,0.08745
6964.59,0.08390
6941.45,0.09014
6918.3,0.08572
6895.16,0.09235
6872.01,0.08770
6848.87,0.09154
6825.72,0.08577
6802.58,0.09118
6779.43,0.10343
6756.29,0.09114
6733.15,0.11095
6710,0.09406
6686.86,0.10028
6663.71,0.08832
6640.57,0.11609
6617.42,0.10631
6594.28,0.11006
6571.13,0.10344
6547.99,0.10816
6524.84,0.10858
6501.7,0.10048
6478.55,0.11102
6455.41,0.10644
6432.27,0.11270
6409.12,0.11643
6385.98,0.11905
6362.83,0.10743
6339.69,0.10533
6316.54,0.10999
6293.4,0.10461
6270.25,0.11171
6247.11,0.10759
6223.96,0.09808
6200.82,0.09113
6177.68,0.08217
6154.53,0.07333
6131.39,0.07493
6108.24,0.06882
6085.1,0.05063
6061.95,0.04933
6038.81,0.04448
6015.66,0.03407
5992.52,0.03450
5969.37,0.04052
5946.23,0.04316
5923.08,0.04248
5899.94,0.04774
5876.8,0.05406
5853.65,0.05689
5830.51,0.06716
5807.36,0.06297
5784.22,0.06233
5761.07,0.05694
5737.93,0.06353
5714.78,0.07842
5691.64,0.08174
5668.49,0.07298
5645.35,0.07509
5622.21,0.09100
5599.06,0.09245
5575.92,0.09112
5552.77,0.08730
5529.63,0.09137
5506.48,0.09400
5483.34,0.09283
5460.19,0.09208
5437.05,0.09638
5413.9,0.09210
5390.76,0.09617
5367.61,0.09690
5344.47,0.09678
5321.33,0.09758
5298.18,0.09225
5275.04,0.07889
5251.89,0.07995
5228.75,0.09572
5205.6,0.10546
5182.46,0.10182
5159.31,0.10243
5136.17,0.10744
5113.02,0.10933
5089.88,0.10872
5066.74,0.10868
5043.59,0.10729
5020.45,0.10713
4997.3,0.10457
4974.16,0.10239
4951.01,0.10310
4927.87,0.09988
4904.72,0.09082
4881.58,0.08652
4858.43,0.08247
4835.29,0.07998
4812.14,0.08417
4789,0.08180
4765.86,0.07377
4742.71,0.06799
4719.57,0.05591
4696.42,0.05416
4673.28,0.05368
4650.13,0.05250
4626.99,0.05384
4603.84,0.05717
4580.7,0.05499
4557.55,0.05785
4534.41,0.06217
4511.27,0.06312
4488.12,0.05808
4464.98,0.05670
4441.83,0.05527
4418.69,0.05435
4395.54,0.05478
4372.4,0.05546
4349.25,0.05547
4326.11,0.05643
4302.96,0.05663
4279.82,0.05535
4256.67,0.05602
4233.53,0.05710
4210.39,0.05538
4187.24,0.05535
4164.1,0.05607
4140.95,0.05606
4117.81,0.05672
4094.66,0.05724
4071.52,0.05666
4048.37,0.05719
4025.23,0.05697
4002.08,0.05724
3978.94,0.05758
3955.8,0.05737
3932.65,0.05642
3909.51,0.05755
3886.36,0.05836
3863.22,0.05952
3840.07,0.05880
3816.93,0.05853
3793.78,0.05954
3770.64,0.06054
3747.49,0.05895
3724.35,0.05877
3701.2,0.05854
3678.06,0.05925
3654.92,0.05777
3631.77,0.05683
3608.63,0.05816
3585.48,0.05678
3562.34,0.05863
3539.19,0.05817
3516.05,0.05805
3492.9,0.05751
3469.76,0.05901
3446.61,0.05895
3423.47,0.05900
3400.33,0.05894
3377.18,0.05847
3354.04,0.05855
3330.89,0.05815
3307.75,0.05797
3284.6,0.05779
3261.46,0.05832
3238.31,0.05844
3215.17,0.05787
3192.02,0.05845
3168.88,0.05921
3145.73,0.05826
3122.59,0.05825
3099.45,0.05833
3076.3,0.05817
3053.16,0.05888
3030.01,0.05937
3006.87,0.05835
2983.72,0.05741
2960.58,0.06067
2937.43,0.06039
2914.29,0.05988
2891.14,0.06063
2868,0.06052
2844.86,0.06038
2821.71,0.06091
2798.57,0.06056
2775.42,0.06079
2752.28,0.06092
2729.13,0.06071
2705.99,0.06074
2682.84,0.06046
2659.7,0.06068
2636.55,0.06102
2613.41,0.06079
2590.26,0.06036
2567.12,0.06078
2543.98,0.06066
2520.83,0.06066
2497.69,0.06095
2474.54,0.06099
2451.4,0.06108
2428.25,0.06081
2405.11,0.06073
2381.96,0.06078
2358.82,0.06148
2335.67,0.06068
2312.53,0.06152
2289.39,0.06042
2266.24,0.06052
2243.1,0.06054
2219.95,0.06109
2196.81,0.06070
2173.66,0.06086
2150.52,0.06065
2127.37,0.06047
2104.23,0.06063
2081.08,0.06009
2057.94,0.05998
2034.79,0.05982
2011.65,0.05977
1988.51,0.06007
1965.36,0.05951
1942.22,0.05882
1919.07,0.05868
1895.93,0.05782
1872.78,0.05725
1849.64,0.05572
1826.49,0.05308
1803.35,0.04638
1780.2,0.06060
1757.06,0.07905
1733.92,0.06753
1710.77,0.06398
1687.63,0.06186
1664.48,0.06010
1641.34,0.05929
1618.19,0.05824
1595.05,0.05832
1571.9,0.05705
1548.76,0.05425
1525.61,0.04879
1502.47,0.07238
1479.32,0.06274
1456.18,0.05989
1433.04,0.05671
1409.89,0.05454
1386.75,0.05355
1363.6,0.05184
1340.46,0.04736
1317.31,0.04050
1294.17,0.03460
1271.02,0.02238
1247.88,0.09736
1224.73,0.14017
1201.59,0.09212
1178.45,0.11094
1155.3,0.13876
1132.16,0.09983
1109.01,0.08762
1085.87,0.07803
1062.72,0.08493
1039.58,0.07784
1016.43,0.07958
993.288,0.08693
970.144,0.08043
946.999,0.07789
923.855,0.07478
900.71,0.07131
877.565,0.07475
854.421,0.06608
831.276,0.07836
808.132,0.08512
784.987,0.07461
761.843,0.08080
738.698,0.07781
715.553,0.07512
692.409,0.07648
669.264,0.07503
646.12,0.07250
622.975,0.06977
599.83,0.06800

File: PC_2.93_S_IS_230516_R2.dpt
7496.92,0.10148
7473.77,0.09913
7450.63,0.08829
7427.48,0.07549
7404.34,0.10703
7381.19,0.06781
7358.05,0.09874
7334.9,0.08953
7311.76,0.10488
7288.62,0.08075
7265.47,0.08659
7242.33,0.07006
7219.18,0.08665
7196.04,0.06779
7172.89,0.07962
7149.75,0.10005
7126.6,0.07607
7103.46,0.08171
7080.31,0.07688
7057.17,0.08610
7034.02,0.08410
7010.88,0.08398
6987.74,0.08090
6964.59,0.10990
6941.45,0.09679
6918.3,0.10947
6895.16,0.09378
6872.01,0.10191
6848.87,0.09250
6825.72,0.10289
6802.58,0.09574
6779.43,0.10413
6756.29,0.11128
6733.15,0.08878
6710,0.09884
6686.86,0.10912
6663.71,0.10474
6640.57,0.10088
6617.42,0.10158
6594.28,0.10740
6571.13,0.10208
6547.99,0.10643
6524.84,0.11563
6501.7,0.11481
6478.55,0.11232
6455.41,0.10679
6432.27,0.12309
6409.12,0.10865
6385.98,0.11574
6362.83,0.11916
6339.69,0.10723
6316.54,0.10660
6293.4,0.10357
6270.25,0.09996
6247.11,0.10906
6223.96,0.10065
6200.82,0.09192
6177.68,0.08671
6154.53,0.08158
6131.39,0.07240
6108.24,0.07466
6085.1,0.05282
6061.95,0.04625
6038.81,0.04048
6015.66,0.04345
5992.52,0.04170
5969.37,0.03416
5946.23,0.04224
5923.08,0.04245
5899.94,0.04540
5876.8,0.05002
5853.65,0.05562
5830.51,0.05981
5807.36,0.06404
5784.22,0.06180
5761.07,0.05643
5737.93,0.06427
5714.78,0.07889
5691.64,0.08366
5668.49,0.07382
5645.35,0.07642
5622.21,0.08896
5599.06,0.09146
5575.92,0.08916
5552.77,0.09137
5529.63,0.09543
5506.48,0.09331
5483.34,0.09049
5460.19,0.09294
5437.05,0.09517
5413.9,0.09667
5390.76,0.10040
5367.61,0.10173
5344.47,0.09687
5321.33,0.09842
5298.18,0.09578
5275.04,0.08089
5251.89,0.08127
5228.75,0.09872
5205.6,0.10090
5182.46,0.10059
5159.31,0.10216
5136.17,0.10632
5113.02,0.10866
5089.88,0.10808
5066.74,0.10685
5043.59,0.10985
5020.45,0.10822
4997.3,0.10535
4974.16,0.10306
4951.01,0.10164
4927.87,0.10303
4904.72,0.09126
4881.58,0.08777
4858.43,0.08285
4835.29,0.08079
4812.14,0.08379
4789,0.08458
4765.86,0.07564
4742.71,0.06674
4719.57,0.05695
4696.42,0.05216
4673.28,0.05347
4650.13,0.05380
4626.99,0.05303
4603.84,0.05688
4580.7,0.05450
4557.55,0.05993
4534.41,0.06226
4511.27,0.06296
4488.12,0.05759
4464.98,0.05817
4441.83,0.05606
4418.69,0.05532
4395.54,0.05422
4372.4,0.05447
4349.25,0.05561
4326.11,0.05509
4302.96,0.05577
4279.82,0.05655
4256.67,0.05575
4233.53,0.05497
4210.39,0.05587
4187.24,0.05555
4164.1,0.05532
4140.95,0.05592
4117.81,0.05513
4094.66,0.05700
4071.52,0.05715
4048.37,0.05655
4025.23,0.05713
4002.08,0.05772
3978.94,0.05691
3955.8,0.05707
3932.65,0.05800
3909.51,0.05818
3886.36,0.05751
3863.22,0.05803
3840.07,0.05886
3816.93,0.05929
3793.78,0.05978
3770.64,0.05972
3747.49,0.05947
3724.35,0.05876
3701.2,0.05882
3678.06,0.05685
3654.92,0.05868
3631.77,0.05808
3608.63,0.05944
3585.48,0.05758
3562.34,0.05770
3539.19,0.05743
3516.05,0.05709
3492.9,0.05800
3469.76,0.05831
3446.61,0.05806
3423.47,0.05928
3400.33,0.05898
3377.18,0.05859
3354.04,0.05806
3330.89,0.05748
3307.75,0.05804
3284.6,0.05773
3261.46,0.05802
3238.31,0.05773
3215.17,0.05839
3192.02,0.05871
3168.88,0.05844
3145.73,0.05881
3122.59,0.05890
3099.45,0.05870
3076.3,0.05838
3053.16,0.05891
3030.01,0.05930
3006.87,0.05784
2983.72,0.05709
2960.58,0.06104
2937.43,0.05975
2914.29,0.05958
2891.14,0.06038
2868,0.06097
2844.86,0.06056
2821.71,0.06042
2798.57,0.06090
2775.42,0.06037
2752.28,0.06030
2729.13,0.06047
2705.99,0.06078
2682.84,0.06070
2659.7,0.06045
2636.55,0.06085
2613.41,0.06078
2590.26,0.06103
2567.12,0.06075
2543.98,0.06080
2520.83,0.06061
2497.69,0.06042
2474.54,0.06063
2451.4,0.06079
2428.25,0.06069
2405.11,0.06058
2381.96,0.06110
2358.82,0.06138
2335.67,0.06067
2312.53,0.06125
2289.39,0.06109
2266.24,0.06028
2243.1,0.06038
2219.95,0.06049
2196.81,0.06045
2173.66,0.06061
2150.52,0.06075
2127.37,0.06039
2104.23,0.05997
2081.08,0.06016
2057.94,0.05975
2034.79,0.06003
2011.65,0.05935
1988.51,0.05953
1965.36,0.05922
1942.22,0.05879
1919.07,0.05824
1895.93,0.05792
1872.78,0.05715
1849.64,0.05593
1826.49,0.05318
1803.35,0.04653
1780.2,0.06033
1757.06,0.07874
1733.92,0.06702
1710.77,0.06350
1687.63,0.06183
1664.48,0.06012
1641.34,0.05931
1618.19,0.05815
1595.05,0.05846
1571.9,0.05670
1548.76,0.05393
1525.61,0.04938
1502.47,0.07221
1479.32,0.06284
1456.18,0.05972
1433.04,0.05662
1409.89,0.05436
1386.75,0.05312
1363.6,0.05241
1340.46,0.04717
1317.31,0.04029
1294.17,0.03451
1271.02,0.02224
1247.88,0.09681
1224.73,0.13942
1201.59,0.09180
1178.45,0.11092
1155.3,0.13884
1132.16,0.09930
1109.01,0.08804
1085.87,0.07736
1062.72,0.08515
1039.58,0.07624
1016.43,0.07967
993.288,0.08676
970.144,0.08030
946.999,0.07739
923.855,0.07446
900.71,0.07174
877.565,0.07555
854.421,0.06649
831.276,0.07824
808.132,0.08466
784.987,0.07540
761.843,0.08046
738.698,0.07774
715.553,0.07597
692.409,0.07678
669.264,0.07456
646.12,0.07404
622.975,0.07109
599.83,0.06626

File: PC_2.93_S_IS_230516_R3.dpt
7496.92,0.09216
7473.77,0.06206
7450.63,0.08452
7427.48,0.07460
7404.34,0.10952
7381.19,0.08941
7358.05,0.09245
7334.9,0.10920
7311.76,0.06740
7288.62,0.08885
7265.47,0.07663
7242.33,0.09037
7219.18,0.09002
7196.04,0.07733
7172.89,0.06994
7149.75,0.08491
7126.6,0.07827
7103.46,0.07492
7080.31,0.07142
7057.17,0.07529
7034.02,0.06807
7010.88,0.08045
6987.74,0.08408
6964.59,0.09512
6941.45,0.10620
6918.3,0.07894
6895.16,0.08270
6872.01,0.10008
6848.87,0.09965
6825.72,0.08932
6802.58,0.09689
6779.43,0.09381
6756.29,0.10244
6733.15,0.07987
6710,0.10322
6686.86,0.10482
6663.71,0.09165
6640.57,0.10492
6617.42,0.11256
6594.28,0.10205
6571.13,0.10873
6547.99,0.10675
6524.84,0.10442
6501.7,0.10183
6478.55,0.12209
6455.41,0.10890
6432.27,0.11533
6409.12,0.10811
6385.98,0.10779
6362.83,0.10719
6339.69,0.10529
6316.54,0.10609
6293.4,0.10735
6270.25,0.10901
6247.11,0.10458
6223.96,0.09959
6200.82,0.09731
6177.68,0.08088
6154.53,0.08689
6131.39,0.06895
6108.24,0.06464
6085.1,0.05106
6061.95,0.04145
6038.81,0.04757
6015.66,0.03487
5992.52,0.04145
5969.37,0.03876
5946.23,0.04248
5923.08,0.04237
5899.94,0.04527
5876.8,0.04630
5853.65,0.05625
5830.51,0.06161
5807.36,0.06330
5784.22,0.06227
5761.07,0.05607
5737.93,0.06526
5714.78,0.07981
5691.64,0.08183
5668.49,0.07313
5645.35,0.07755
5622.21,0.09068
5599.06,0.09436
5575.92,0.09337
5552.77,0.09160
5529.63,0.09123
5506.48,0.09197
5483.34,0.09291
5460.19,0.09057
5437.05,0.09634
5413.9,0.09430
5390.76,0.09750
5367.61,0.09643
5344.47,0.09487
5321.33,0.09558
5298.18,0.09231
5275.04,0.07824
5251.89,0.07979
5228.75,0.09499
5205.6,0.10184
5182.46,0.10297
5159.31,0.10390
5136.17,0.10629
5113.02,0.10720
5089.88,0.10844
5066.74,0.10854
5043.59,0.10749
5020.45,0.10458
4997.3,0.10478
4974.16,0.10471
4951.01,0.10279
4927.87,0.09965
4904.72,0.09271
4881.58,0.08787
4858.43,0.08348
4835.29,0.07987
4812.14,0.08392
4789,0.08143
4765.86,0.07516
4742.71,0.06638
4719.57,0.05578
4696.42,0.05201
4673.28,0.05161
4650.13,0.05210
4626.99,0.05306
4603.84,0.05800
4580.7,0.05428
4557.55,0.06028
4534.41,0.06242
4511.27,0.06231
4488.12,0.05733
4464.98,0.05888
4441.83,0.05501
4418.69,0.05344
4395.54,0.05472
4372.4,0.05508
4349.25,0.05397
4326.11,0.05602
4302.96,0.05610
4279.82,0.05564
4256.67,0.05561
4233.53,0.05533
4210.39,0.05541
4187.24,0.05561
4164.1,0.05632
4140.95,0.05634
4117.81,0.05667
4094.66,0.05637
4071.52,0.05618
4048.37,0.05773
4025.23,0.05609
4002.08,0.05690
3978.94,0.05686
3955.8,0.05752
3932.65,0.05708
3909.51,0.05760
3886.36,0.05747
3863.22,0.05770
3840.07,0.05782
3816.93,0.05884
3793.78,0.06004
3770.64,0.05902
3747.49,0.05877
3724.35,0.05879
3701.2,0.05862
3678.06,0.05791
3654.92,0.05816
3631.77,0.05681
3608.63,0.05761
3585.48,0.05680
3562.34,0.05761
3539.19,0.05771
3516.05,0.05728
3492.9,0.05799
3469.76,0.05715
3446.61,0.05845
3423.47,0.05898
3400.33,0.05910
3377.18,0.05804
3354.04,0.05864
3330.89,0.05790
3307.75,0.05814
3284.6,0.05750
3261.46,0.05764
3238.31,0.05733
3215.17,0.05801
3192.02,0.05829
3168.88,0.05847
3145.73,0.05886
3122.59,0.05861
3099.45,0.05787
3076.3,0.05791
3053.16,0.05825
3030.01,0.05875
3006.87,0.05822
2983.72,0.05744
2960.58,0.06069
2937.43,0.06030
2914.29,0.06074
2891.14,0.05947
2868,0.06049
2844.86,0.06012
2821.71,0.06015
2798.57,0.06015
2775.42,0.06068
2752.28,0.06038
2729.13,0.06039
2705.99,0.06063
2682.84,0.06047
2659.7,0.06061
2636.55,0.06007
2613.41,0.06046
2590.26,0.06005
2567.12,0.06031
2543.98,0.06003
2520.83,0.06066
2497.69,0.06026
2474.54,0.06030
2451.4,0.06047
2428.25,0.06091
2405.11,0.06038
2381.96,0.06101
2358.82,0.06044
2335.67,0.06046
2312.53,0.06036
2289.39,0.06067
2266.24,0.06076
2243.1,0.06049
2219.95,0.06053
2196.81,0.06040
2173.66,0.06030
2150.52,0.06030
2127.37,0.05978
2104.23,0.05967
2081.08,0.05967
2057.94,0.05989
2034.79,0.05948
2011.65,0.05978
1988.51,0.05941
1965.36,0.05889
1942.22,0.05854
1919.07,0.05826
1895.93,0.05758
1872.78,0.05678
1849.64,0.05591
1826.49,0.05328
1803.35,0.04621
1780.2,0.06038
1757.06,0.07838
1733.92,0.06690
1710.77,0.06369
1687.63,0.06129
1664.48,0.05966
1641.34,0.05919
1618.19,0.05841
1595.05,0.05810
1571.9,0.05676
1548.76,0.05344
1525.61,0.04888
1502.47,0.07141
1479.32,0.06257
1456.18,0.06035
1433.04,0.05669
1409.89,0.05427
1386.75,0.05327
1363.6,0.05213
1340.46,0.04748
1317.31,0.04013
1294.17,0.03420
1271.02,0.02214
1247.88,0.09652
1224.73,0.13931
1201.59,0.09116
1178.45,0.11071
1155.3,0.13834
1132.16,0.09918
1109.01,0.08769
1085.87,0.07720
1062.72,0.08446
1039.58,0.07747
1016.43,0.07910
993.288,0.08652
970.144,0.08007
946.999,0.07663
923.855,0.07535
900.71,0.07076
877.565,0.07427
854.421,0.06591
831.276,0.07875
808.132,0.08503
784.987,0.07537
761.843,0.07982
738.698,0.07717
715.553,0.07527
692.409,0.07644
669.264,0.07633
646.12,0.07376
622.975,0.07245
599.83,0.06877