Folder: fsri_materials_database/01_Data/PC/FTIR/IS (part 8)

File: PC_IS_T_230508_R4.dpt
7496.92,0.02120
7473.77,0.02507
7450.63,0.02061
7427.48,0.01246
7404.34,0.03313
7381.19,0.02714
7358.05,0.02878
7334.9,0.02622
7311.76,0.01388
7288.62,0.02803
7265.47,0.02724
7242.33,0.02619
7219.18,0.02222
7196.04,0.01848
7172.89,0.03277
7149.75,0.02319
7126.6,0.02024
7103.46,0.02136
7080.31,0.01655
7057.17,0.03519
7034.02,0.03135
7010.88,0.02531
6987.74,0.01879
6964.59,0.02720
6941.45,0.02366
6918.3,0.02932
6895.16,0.02395
6872.01,0.03117
6848.87,0.02958
6825.72,0.02044
6802.58,0.02176
6779.43,0.01977
6756.29,0.02884
6733.15,0.02802
6710,0.02074
6686.86,0.02105
6663.71,0.02294
6640.57,0.02620
6617.42,0.02669
6594.28,0.02012
6571.13,0.02503
6547.99,0.02310
6524.84,0.02527
6501.7,0.02733
6478.55,0.02167
6455.41,0.01800
6432.27,0.02553
6409.12,0.02238
6385.98,0.02287
6362.83,0.02314
6339.69,0.02598
6316.54,0.02190
6293.4,0.02139
6270.25,0.01920
6247.11,0.02436
6223.96,0.02465
6200.82,0.02390
6177.68,0.02605
6154.53,0.02461
6131.39,0.02570
6108.24,0.02591
6085.1,0.02026
6061.95,0.02155
6038.81,0.02271
6015.66,0.02403
5992.52,0.01906
5969.37,0.02313
5946.23,0.02064
5923.08,0.02482
5899.94,0.02359
5876.8,0.02296
5853.65,0.02407
5830.51,0.02465
5807.36,0.02408
5784.22,0.01935
5761.07,0.02297
5737.93,0.02308
5714.78,0.02392
5691.64,0.02473
5668.49,0.02353
5645.35,0.02591
5622.21,0.02265
5599.06,0.02332
5575.92,0.02357
5552.77,0.02493
5529.63,0.02416
5506.48,0.02414
5483.34,0.02384
5460.19,0.02441
5437.05,0.02075
5413.9,0.02419
5390.76,0.02337
5367.61,0.02410
5344.47,0.02195
5321.33,0.02387
5298.18,0.02403
5275.04,0.02299
5251.89,0.02504
5228.75,0.02337
5205.6,0.02375
5182.46,0.02431
5159.31,0.02525
5136.17,0.02375
5113.02,0.02454
5089.88,0.02270
5066.74,0.02372
5043.59,0.02160
5020.45,0.02365
4997.3,0.02343
4974.16,0.02388
4951.01,0.02374
4927.87,0.02250
4904.72,0.02281
4881.58,0.02300
4858.43,0.02369
4835.29,0.02352
4812.14,0.02373
4789,0.02313
4765.86,0.02377
4742.71,0.02352
4719.57,0.02436
4696.42,0.02444
4673.28,0.02380
4650.13,0.02366
4626.99,0.02296
4603.84,0.02324
4580.7,0.02356
4557.55,0.02362
4534.41,0.02448
4511.27,0.02352
4488.12,0.02425
4464.98,0.02366
4441.83,0.02438
4418.69,0.02403
4395.54,0.02496
4372.4,0.02471
4349.25,0.02357
4326.11,0.02318
4302.96,0.02330
4279.82,0.02396
4256.67,0.02378
4233.53,0.02438
4210.39,0.02411
4187.24,0.02498
4164.1,0.02410
4140.95,0.02480
4117.81,0.02465
4094.66,0.02355
4071.52,0.02455
4048.37,0.02484
4025.23,0.02433
4002.08,0.02413
3978.94,0.02434
3955.8,0.02355
3932.65,0.02437
3909.51,0.02474
3886.36,0.02482
3863.22,0.02423
3840.07,0.02534
3816.93,0.02360
3793.78,0.02426
3770.64,0.02462
3747.49,0.02358
3724.35,0.02518
3701.2,0.02284
3678.06,0.02390
3654.92,0.02261
3631.77,0.02263
3608.63,0.02287
3585.48,0.02178
3562.34,0.02332
3539.19,0.02170
3516.05,0.02218
3492.9,0.02259
3469.76,0.02229
3446.61,0.02213
3423.47,0.02100
3400.33,0.02110
3377.18,0.02185
3354.04,0.02156
3330.89,0.02132
3307.75,0.02205
3284.6,0.02244
3261.46,0.02212
3238.31,0.02229
3215.17,0.02196
3192.02,0.02272
3168.88,0.02317
3145.73,0.02325
3122.59,0.02226
3099.45,0.02266
3076.3,0.02217
3053.16,0.02263
3030.01,0.02260
3006.87,0.02230
2983.72,0.02239
2960.58,0.02167
2937.43,0.02195
2914.29,0.02207
2891.14,0.02239
2868,0.02248
2844.86,0.02360
2821.71,0.02339
2798.57,0.02350
2775.42,0.02355
2752.28,0.02317
2729.13,0.02336
2705.99,0.02349
2682.84,0.02352
2659.7,0.02319
2636.55,0.02309
2613.41,0.02332
2590.26,0.02359
2567.12,0.02325
2543.98,0.02333
2520.83,0.02304
2497.69,0.02312
2474.54,0.02325
2451.4,0.02337
2428.25,0.02350
2405.11,0.02342
2381.96,0.02335
2358.82,0.02366
2335.67,0.02472
2312.53,0.02329
2289.39,0.02326
2266.24,0.02329
2243.1,0.02281
2219.95,0.02311
2196.81,0.02309
2173.66,0.02332
2150.52,0.02344
2127.37,0.02315
2104.23,0.02305
2081.08,0.02283
2057.94,0.02317
2034.79,0.02275
2011.65,0.02306
1988.51,0.02343
1965.36,0.02275
1942.22,0.02292
1919.07,0.02283
1895.93,0.02254
1872.78,0.02322
1849.64,0.02261
1826.49,0.02166
1803.35,0.02190
1780.2,0.02131
1757.06,0.01945
1733.92,0.02156
1710.77,0.02265
1687.63,0.02103
1664.48,0.02042
1641.34,0.02031
1618.19,0.02058
1595.05,0.02068
1571.9,0.02064
1548.76,0.01997
1525.61,0.02102
1502.47,0.02094
1479.32,0.02071
1456.18,0.02011
1433.04,0.02027
1409.89,0.02024
1386.75,0.01993
1363.6,0.01978
1340.46,0.01915
1317.31,0.01861
1294.17,0.01929
1271.02,0.02114
1247.88,0.02204
1224.73,0.02103
1201.59,0.02021
1178.45,0.01961
1155.3,0.01872
1132.16,0.01946
1109.01,0.02025
1085.87,0.01958
1062.72,0.02193
1039.58,0.02158
1016.43,0.02086
993.288,0.02296
970.144,0.02191
946.999,0.02139
923.855,0.02081
900.71,0.02115
877.565,0.02053
854.421,0.02041
831.276,0.02038
808.132,0.02005
784.987,0.02041
761.843,0.02026
738.698,0.01974
715.553,0.01895
692.409,0.01881
669.264,0.01889
646.12,0.01839
622.975,0.01860
599.83,0.01860

File: PC_IS_T_230508_R5.dpt
7496.92,0.02799
7473.77,0.01875
7450.63,0.01874
7427.48,0.03589
7404.34,0.02813
7381.19,0.02940
7358.05,0.02522
7334.9,0.02996
7311.76,0.02951
7288.62,0.02305
7265.47,0.02185
7242.33,0.03183
7219.18,0.02959
7196.04,0.02823
7172.89,0.01860
7149.75,0.02919
7126.6,0.02731
7103.46,0.01963
7080.31,0.02886
7057.17,0.02152
7034.02,0.02078
7010.88,0.02725
6987.74,0.02701
6964.59,0.02468
6941.45,0.02502
6918.3,0.02803
6895.16,0.02873
6872.01,0.02707
6848.87,0.02176
6825.72,0.01782
6802.58,0.02269
6779.43,0.02375
6756.29,0.02400
6733.15,0.02772
6710,0.02258
6686.86,0.02223
6663.71,0.02610
6640.57,0.02683
6617.42,0.02277
6594.28,0.02428
6571.13,0.02463
6547.99,0.01982
6524.84,0.02476
6501.7,0.02704
6478.55,0.02554
6455.41,0.02196
6432.27,0.02282
6409.12,0.02595
6385.98,0.02261
6362.83,0.02689
6339.69,0.02585
6316.54,0.02375
6293.4,0.02626
6270.25,0.02086
6247.11,0.02430
6223.96,0.02516
6200.82,0.02543
6177.68,0.02227
6154.53,0.02122
6131.39,0.02703
6108.24,0.02338
6085.1,0.02210
6061.95,0.02394
6038.81,0.02310
6015.66,0.02086
5992.52,0.02366
5969.37,0.02711
5946.23,0.02422
5923.08,0.02653
5899.94,0.02412
5876.8,0.02357
5853.65,0.02155
5830.51,0.02324
5807.36,0.02518
5784.22,0.02183
5761.07,0.02167
5737.93,0.02290
5714.78,0.02196
5691.64,0.02295
5668.49,0.02249
5645.35,0.02314
5622.21,0.02485
5599.06,0.02348
5575.92,0.02190
5552.77,0.02493
5529.63,0.02197
5506.48,0.02577
5483.34,0.02370
5460.19,0.02421
5437.05,0.02410
5413.9,0.02446
5390.76,0.02179
5367.61,0.02249
5344.47,0.02266
5321.33,0.02295
5298.18,0.02400
5275.04,0.02392
5251.89,0.02326
5228.75,0.02355
5205.6,0.02393
5182.46,0.02639
5159.31,0.02277
5136.17,0.02210
5113.02,0.02451
5089.88,0.02398
5066.74,0.02441
5043.59,0.02298
5020.45,0.02468
4997.3,0.02368
4974.16,0.02458
4951.01,0.02325
4927.87,0.02369
4904.72,0.02179
4881.58,0.02357
4858.43,0.02387
4835.29,0.02408
4812.14,0.02289
4789,0.02459
4765.86,0.02396
4742.71,0.02300
4719.57,0.02423
4696.42,0.02358
4673.28,0.02364
4650.13,0.02358
4626.99,0.02396
4603.84,0.02417
4580.7,0.02388
4557.55,0.02381
4534.41,0.02340
4511.27,0.02488
4488.12,0.02363
4464.98,0.02416
4441.83,0.02371
4418.69,0.02376
4395.54,0.02458
4372.4,0.02361
4349.25,0.02423
4326.11,0.02466
4302.96,0.02387
4279.82,0.02456
4256.67,0.02340
4233.53,0.02362
4210.39,0.02459
4187.24,0.02434
4164.1,0.02398
4140.95,0.02414
4117.81,0.02412
4094.66,0.02522
4071.52,0.02440
4048.37,0.02416
4025.23,0.02487
4002.08,0.02494
3978.94,0.02456
3955.8,0.02455
3932.65,0.02410
3909.51,0.02453
3886.36,0.02555
3863.22,0.02401
3840.07,0.02485
3816.93,0.02437
3793.78,0.02399
3770.64,0.02467
3747.49,0.02277
3724.35,0.02404
3701.2,0.02359
3678.06,0.02525
3654.92,0.02377
3631.77,0.02333
3608.63,0.02256
3585.48,0.02207
3562.34,0.02261
3539.19,0.02254
3516.05,0.02108
3492.9,0.02146
3469.76,0.02193
3446.61,0.02245
3423.47,0.02256
3400.33,0.02172
3377.18,0.02176
3354.04,0.02193
3330.89,0.02217
3307.75,0.02200
3284.6,0.02161
3261.46,0.02163
3238.31,0.02293
3215.17,0.02229
3192.02,0.02278
3168.88,0.02278
3145.73,0.02283
3122.59,0.02259
3099.45,0.02289
3076.3,0.02275
3053.16,0.02258
3030.01,0.02299
3006.87,0.02232
2983.72,0.02243
2960.58,0.02146
2937.43,0.02205
2914.29,0.02165
2891.14,0.02244
2868,0.02232
2844.86,0.02285
2821.71,0.02346
2798.57,0.02364
2775.42,0.02347
2752.28,0.02340
2729.13,0.02328
2705.99,0.02370
2682.84,0.02337
2659.7,0.02339
2636.55,0.02349
2613.41,0.02329
2590.26,0.02383
2567.12,0.02381
2543.98,0.02328
2520.83,0.02360
2497.69,0.02358
2474.54,0.02358
2451.4,0.02309
2428.25,0.02349
2405.11,0.02339
2381.96,0.02401
2358.82,0.02514
2335.67,0.02329
2312.53,0.02371
2289.39,0.02370
2266.24,0.02359
2243.1,0.02350
2219.95,0.02328
2196.81,0.02355
2173.66,0.02299
2150.52,0.02327
2127.37,0.02310
2104.23,0.02330
2081.08,0.02335
2057.94,0.02311
2034.79,0.02370
2011.65,0.02310
1988.51,0.02310
1965.36,0.02331
1942.22,0.02299
1919.07,0.02307
1895.93,0.02294
1872.78,0.02284
1849.64,0.02258
1826.49,0.02231
1803.35,0.02215
1780.2,0.02152
1757.06,0.01946
1733.92,0.02046
1710.77,0.02261
1687.63,0.02199
1664.48,0.02070
1641.34,0.02071
1618.19,0.02130
1595.05,0.02101
1571.9,0.02137
1548.76,0.02049
1525.61,0.02102
1502.47,0.02063
1479.32,0.02071
1456.18,0.02082
1433.04,0.02010
1409.89,0.01982
1386.75,0.01991
1363.6,0.01946
1340.46,0.01980
1317.31,0.01919
1294.17,0.01929
1271.02,0.02110
1247.88,0.02208
1224.73,0.02119
1201.59,0.02089
1178.45,0.01978
1155.3,0.01896
1132.16,0.01992
1109.01,0.02018
1085.87,0.01999
1062.72,0.02122
1039.58,0.02121
1016.43,0.02075
993.288,0.02281
970.144,0.02260
946.999,0.02181
923.855,0.02139
900.71,0.02078
877.565,0.02106
854.421,0.02124
831.276,0.02014
808.132,0.02037
784.987,0.02004
761.843,0.01935
738.698,0.01919
715.553,0.01902
692.409,0.01795
669.264,0.01577
646.12,0.01745
622.975,0.01781
599.83,0.01814

File: PC_IS_T_230508_R6.dpt
7496.92,0.01978
7473.77,0.02854
7450.63,0.02974
7427.48,0.02050
7404.34,0.02232
7381.19,0.01798
7358.05,0.03234
7334.9,0.03045
7311.76,0.02205
7288.62,0.02236
7265.47,0.03258
7242.33,0.02751
7219.18,0.02771
7196.04,0.02755
7172.89,0.02563
7149.75,0.02710
7126.6,0.02913
7103.46,0.02905
7080.31,0.02516
7057.17,0.02670
7034.02,0.02552
7010.88,0.03077
6987.74,0.02202
6964.59,0.02827
6941.45,0.01700
6918.3,0.02605
6895.16,0.02384
6872.01,0.02077
6848.87,0.02315
6825.72,0.02229
6802.58,0.02490
6779.43,0.02702
6756.29,0.02398
6733.15,0.02948
6710,0.02089
6686.86,0.02423
6663.71,0.02843
6640.57,0.02414
6617.42,0.02592
6594.28,0.02277
6571.13,0.01901
6547.99,0.01890
6524.84,0.02392
6501.7,0.03021
6478.55,0.02326
6455.41,0.02330
6432.27,0.02447
6409.12,0.02409
6385.98,0.02449
6362.83,0.02179
6339.69,0.02192
6316.54,0.02350
6293.4,0.02457
6270.25,0.02311
6247.11,0.02557
6223.96,0.02336
6200.82,0.02416
6177.68,0.02552
6154.53,0.02347
6131.39,0.02365
6108.24,0.02522
6085.1,0.02876
6061.95,0.02117
6038.81,0.02195
6015.66,0.02426
5992.52,0.02498
5969.37,0.02248
5946.23,0.02382
5923.08,0.02372
5899.94,0.02531
5876.8,0.02536
5853.65,0.02431
5830.51,0.02098
5807.36,0.02488
5784.22,0.02229
5761.07,0.02284
5737.93,0.02210
5714.78,0.02225
5691.64,0.02554
5668.49,0.02575
5645.35,0.02558
5622.21,0.02453
5599.06,0.02184
5575.92,0.02387
5552.77,0.02320
5529.63,0.02326
5506.48,0.02235
5483.34,0.02465
5460.19,0.02220
5437.05,0.02201
5413.9,0.02504
5390.76,0.02281
5367.61,0.02437
5344.47,0.02285
5321.33,0.02644
5298.18,0.02403
5275.04,0.02258
5251.89,0.02427
5228.75,0.02334
5205.6,0.02384
5182.46,0.02336
5159.31,0.02422
5136.17,0.02344
5113.02,0.02454
5089.88,0.02423
5066.74,0.02385
5043.59,0.02401
5020.45,0.02356
4997.3,0.02353
4974.16,0.02431
4951.01,0.02281
4927.87,0.02395
4904.72,0.02327
4881.58,0.02399
4858.43,0.02404
4835.29,0.02392
4812.14,0.02296
4789,0.02397
4765.86,0.02334
4742.71,0.02434
4719.57,0.02354
4696.42,0.02477
4673.28,0.02450
4650.13,0.02425
4626.99,0.02416
4603.84,0.02389
4580.7,0.02457
4557.55,0.02401
4534.41,0.02445
4511.27,0.02386
4488.12,0.02347
4464.98,0.02419
4441.83,0.02416
4418.69,0.02397
4395.54,0.02395
4372.4,0.02372
4349.25,0.02503
4326.11,0.02484
4302.96,0.02491
4279.82,0.02458
4256.67,0.02467
4233.53,0.02502
4210.39,0.02412
4187.24,0.02485
4164.1,0.02429
4140.95,0.02491
4117.81,0.02485
4094.66,0.02448
4071.52,0.02507
4048.37,0.02437
4025.23,0.02404
4002.08,0.02433
3978.94,0.02455
3955.8,0.02417
3932.65,0.02463
3909.51,0.02460
3886.36,0.02492
3863.22,0.02270
3840.07,0.02422
3816.93,0.02395
3793.78,0.02476
3770.64,0.02426
3747.49,0.02271
3724.35,0.02418
3701.2,0.02434
3678.06,0.02418
3654.92,0.02421
3631.77,0.02292
3608.63,0.02438
3585.48,0.02219
3562.34,0.02221
3539.19,0.02271
3516.05,0.02262
3492.9,0.02209
3469.76,0.02181
3446.61,0.02188
3423.47,0.02170
3400.33,0.02197
3377.18,0.02250
3354.04,0.02251
3330.89,0.02143
3307.75,0.02233
3284.6,0.02181
3261.46,0.02299
3238.31,0.02220
3215.17,0.02304
3192.02,0.02269
3168.88,0.02324
3145.73,0.02319
3122.59,0.02272
3099.45,0.02253
3076.3,0.02295
3053.16,0.02300
3030.01,0.02285
3006.87,0.02274
2983.72,0.02209
2960.58,0.02132
2937.43,0.02225
2914.29,0.02258
2891.14,0.02252
2868,0.02276
2844.86,0.02351
2821.71,0.02372
2798.57,0.02384
2775.42,0.02353
2752.28,0.02351
2729.13,0.02339
2705.99,0.02355
2682.84,0.02352
2659.7,0.02386
2636.55,0.02358
2613.41,0.02372
2590.26,0.02380
2567.12,0.02395
2543.98,0.02353
2520.83,0.02358
2497.69,0.02408
2474.54,0.02364
2451.4,0.02373
2428.25,0.02370
2405.11,0.02366
2381.96,0.02403
2358.82,0.02325
2335.67,0.02301
2312.53,0.02318
2289.39,0.02313
2266.24,0.02382
2243.1,0.02379
2219.95,0.02343
2196.81,0.02367
2173.66,0.02335
2150.52,0.02298
2127.37,0.02338
2104.23,0.02352
2081.08,0.02349
2057.94,0.02354
2034.79,0.02291
2011.65,0.02299
1988.51,0.02347
1965.36,0.02323
1942.22,0.02316
1919.07,0.02310
1895.93,0.02317
1872.78,0.02327
1849.64,0.02271
1826.49,0.02295
1803.35,0.02203
1780.2,0.02167
1757.06,0.02038
1733.92,0.02119
1710.77,0.02246
1687.63,0.02097
1664.48,0.02092
1641.34,0.02089
1618.19,0.02124
1595.05,0.02103
1571.9,0.02151
1548.76,0.02082
1525.61,0.02112
1502.47,0.02066
1479.32,0.02078
1456.18,0.02031
1433.04,0.02070
1409.89,0.02007
1386.75,0.02006
1363.6,0.02017
1340.46,0.01975
1317.31,0.01878
1294.17,0.01952
1271.02,0.02128
1247.88,0.02217
1224.73,0.02124
1201.59,0.02093
1178.45,0.02007
1155.3,0.01967
1132.16,0.01974
1109.01,0.02064
1085.87,0.01986
1062.72,0.02127
1039.58,0.02164
1016.43,0.02120
993.288,0.02297
970.144,0.02199
946.999,0.02176
923.855,0.02110
900.71,0.02143
877.565,0.02083
854.421,0.02066
831.276,0.02081
808.132,0.01911
784.987,0.02033
761.843,0.01952
738.698,0.02012
715.553,0.01905
692.409,0.02026
669.264,0.01768
646.12,0.01839
622.975,0.01611
599.83,0.01574

File: PC_IS_T_230508_R7.dpt
7496.92,0.02362
7473.77,0.02246
7450.63,0.02513
7427.48,0.03117
7404.34,0.02720
7381.19,0.02415
7358.05,0.01655
7334.9,0.02729
7311.76,0.02395
7288.62,0.02156
7265.47,0.02653
7242.33,0.03314
7219.18,0.01305
7196.04,0.01143
7172.89,0.02770
7149.75,0.02545
7126.6,0.02181
7103.46,0.03237
7080.31,0.01923
7057.17,0.03173
7034.02,0.02497
7010.88,0.02875
6987.74,0.02289
6964.59,0.02161
6941.45,0.03085
6918.3,0.03288
6895.16,0.02660
6872.01,0.03008
6848.87,0.02070
6825.72,0.02187
6802.58,0.02683
6779.43,0.02802
6756.29,0.02416
6733.15,0.02623
6710,0.02178
6686.86,0.02168
6663.71,0.02230
6640.57,0.02289
6617.42,0.02638
6594.28,0.02448
6571.13,0.02787
6547.99,0.02499
6524.84,0.02558
6501.7,0.02554
6478.55,0.02124
6455.41,0.02123
6432.27,0.02254
6409.12,0.02670
6385.98,0.02769
6362.83,0.02004
6339.69,0.01936
6316.54,0.02228
6293.4,0.02153
6270.25,0.02236
6247.11,0.02336
6223.96,0.02024
6200.82,0.02276
6177.68,0.02384
6154.53,0.02033
6131.39,0.02368
6108.24,0.02335
6085.1,0.02362
6061.95,0.02376
6038.81,0.02106
6015.66,0.02671
5992.52,0.02448
5969.37,0.02720
5946.23,0.02429
5923.08,0.02510
5899.94,0.02114
5876.8,0.02421
5853.65,0.02356
5830.51,0.02398
5807.36,0.02417
5784.22,0.02491
5761.07,0.02367
5737.93,0.02228
5714.78,0.02603
5691.64,0.02283
5668.49,0.02225
5645.35,0.02335
5622.21,0.02275
5599.06,0.02356
5575.92,0.02385
5552.77,0.02508
5529.63,0.02210
5506.48,0.02553
5483.34,0.02226
5460.19,0.02395
5437.05,0.02324
5413.9,0.02558
5390.76,0.02435
5367.61,0.02364
5344.47,0.02554
5321.33,0.02357
5298.18,0.02360
5275.04,0.02280
5251.89,0.02437
5228.75,0.02415
5205.6,0.02231
5182.46,0.02327
5159.31,0.02419
5136.17,0.02489
5113.02,0.02320
5089.88,0.02452
5066.74,0.02359
5043.59,0.02299
5020.45,0.02231
4997.3,0.02444
4974.16,0.02455
4951.01,0.02411
4927.87,0.02413
4904.72,0.02340
4881.58,0.02447
4858.43,0.02524
4835.29,0.02309
4812.14,0.02237
4789,0.02347
4765.86,0.02400
4742.71,0.02301
4719.57,0.02471
4696.42,0.02371
4673.28,0.02474
4650.13,0.02267
4626.99,0.02309
4603.84,0.02479
4580.7,0.02407
4557.55,0.02334
4534.41,0.02364
4511.27,0.02369
4488.12,0.02406
4464.98,0.02390
4441.83,0.02340
4418.69,0.02337
4395.54,0.02347
4372.4,0.02365
4349.25,0.02353
4326.11,0.02391
4302.96,0.02345
4279.82,0.02405
4256.67,0.02372
4233.53,0.02536
4210.39,0.02372
4187.24,0.02423
4164.1,0.02422
4140.95,0.02386
4117.81,0.02404
4094.66,0.02428
4071.52,0.02450
4048.37,0.02416
4025.23,0.02451
4002.08,0.02448
3978.94,0.02385
3955.8,0.02448
3932.65,0.02459
3909.51,0.02444
3886.36,0.02386
3863.22,0.02418
3840.07,0.02446
3816.93,0.02298
3793.78,0.02425
3770.64,0.02531
3747.49,0.02519
3724.35,0.02381
3701.2,0.02434
3678.06,0.02319
3654.92,0.02286
3631.77,0.02296
3608.63,0.02261
3585.48,0.02214
3562.34,0.02321
3539.19,0.02136
3516.05,0.02152
3492.9,0.02274
3469.76,0.02132
3446.61,0.02162
3423.47,0.02216
3400.33,0.02167
3377.18,0.02214
3354.04,0.02104
3330.89,0.02139
3307.75,0.02148
3284.6,0.02232
3261.46,0.02214
3238.31,0.02254
3215.17,0.02223
3192.02,0.02180
3168.88,0.02300
3145.73,0.02283
3122.59,0.02247
3099.45,0.02258
3076.3,0.02228
3053.16,0.02250
3030.01,0.02275
3006.87,0.02188
2983.72,0.02211
2960.58,0.02165
2937.43,0.02205
2914.29,0.02179
2891.14,0.02263
2868,0.02246
2844.86,0.02242
2821.71,0.02351
2798.57,0.02298
2775.42,0.02273
2752.28,0.02298
2729.13,0.02293
2705.99,0.02330
2682.84,0.02309
2659.7,0.02298
2636.55,0.02317
2613.41,0.02320
2590.26,0.02333
2567.12,0.02301
2543.98,0.02315
2520.83,0.02301
2497.69,0.02286
2474.54,0.02339
2451.4,0.02346
2428.25,0.02322
2405.11,0.02332
2381.96,0.02298
2358.82,0.02503
2335.67,0.02388
2312.53,0.02372
2289.39,0.02291
2266.24,0.02303
2243.1,0.02334
2219.95,0.02335
2196.81,0.02264
2173.66,0.02277
2150.52,0.02323
2127.37,0.02304
2104.23,0.02275
2081.08,0.02292
2057.94,0.02297
2034.79,0.02256
2011.65,0.02250
1988.51,0.02265
1965.36,0.02267
1942.22,0.02262
1919.07,0.02284
1895.93,0.02256
1872.78,0.02279
1849.64,0.02278
1826.49,0.02232
1803.35,0.02206
1780.2,0.02122
1757.06,0.01954
1733.92,0.02115
1710.77,0.02225
1687.63,0.02120
1664.48,0.01981
1641.34,0.02048
1618.19,0.02118
1595.05,0.02090
1571.9,0.01999
1548.76,0.01992
1525.61,0.02027
1502.47,0.02047
1479.32,0.02057
1456.18,0.02050
1433.04,0.02037
1409.89,0.02008
1386.75,0.01978
1363.6,0.01956
1340.46,0.01946
1317.31,0.01866
1294.17,0.01922
1271.02,0.02083
1247.88,0.02194
1224.73,0.02080
1201.59,0.02053
1178.45,0.01948
1155.3,0.01981
1132.16,0.01943
1109.01,0.02013
1085.87,0.01941
1062.72,0.02160
1039.58,0.02099
1016.43,0.02091
993.288,0.02239
970.144,0.02192
946.999,0.02141
923.855,0.02115
900.71,0.02078
877.565,0.02038
854.421,0.02031
831.276,0.02019
808.132,0.02001
784.987,0.01945
761.843,0.01942
738.698,0.02003
715.553,0.01871
692.409,0.01931
669.264,0.01983
646.12,0.01803
622.975,0.01713
599.83,0.01434