Folder: fsri_materials_database/01_Data/Turnout_Gear_Shell/STA/N2/10K_min (part 2)

File: Turnout_Gear_Shell_STA_N2_10KData_240528_R1.csv
Temp./C,Time/min,DSC/(mW/mg),Mass loss/mg
60.0,0.0,0.823361,-0.0262355
62.7,0.300647,0.906416,-0.0271921
65.4,0.59671,0.968882,-0.0275558
68.1,0.88365,1.03322,-0.0288697
70.8,1.17116,1.08942,-0.0304771
73.5,1.45485,1.14628,-0.0303222
76.2,1.73573,1.2123,-0.0357086
78.9,2.01426,1.25981,-0.0370037
81.6,2.29135,1.30328,-0.0389703
84.3,2.56577,1.3467,-0.0422738
87,2.83822,1.36814,-0.0448912
89.7,3.1098,1.39672,-0.0475322
92.4,3.3798,1.40683,-0.04907
95.1,3.64467,1.41158,-0.0530247
97.8,3.91094,1.42486,-0.05533
100.5,4.17527,1.41087,-0.0579693
103.2,4.439,1.39808,-0.0611427
105.9,4.70264,1.37272,-0.0624598
108.6,4.96457,1.35385,-0.0641091
111.3,5.22692,1.32899,-0.0664199
114,5.48615,1.31119,-0.0680234
116.7,5.74867,1.28457,-0.0706991
119.4,6.01166,1.25493,-0.0747502
122.1,6.27168,1.22859,-0.0736849
124.8,6.53146,1.19763,-0.0708006
127.5,6.79073,1.18225,-0.0734431
130.2,7.05095,1.158,-0.0747525
132.9,7.30909,1.13032,-0.0787129
135.6,7.56835,1.10526,-0.07871
138.3,7.82519,1.07956,-0.0787079
141,8.08229,1.06416,-0.0760733
143.7,8.3429,1.04634,-0.0800295
146.4,8.60124,1.03916,-0.0813721
149.1,8.85889,1.01964,-0.0813398
151.8,9.11577,0.998035,-0.0819997
154.5,9.37341,0.984578,-0.0843719
157.2,9.63157,0.973348,-0.0819187
159.9,9.8889,0.974409,-0.0819155
162.6,10.1456,0.969788,-0.08201
165.3,10.403,0.96506,-0.0820114
168,10.6607,0.959726,-0.0846225
170.7,10.9172,0.960081,-0.08464
173.4,11.1748,0.954323,-0.0856391
176.1,11.4318,0.949689,-0.0859425
178.8,11.6887,0.952961,-0.0843099
181.5,11.9454,0.950841,-0.0856353
184.2,12.2033,0.950853,-0.08629
186.9,12.4599,0.94172,-0.0869216
189.6,12.7155,0.942537,-0.0882836
192.3,12.972,0.941511,-0.0882603
195,13.2277,0.953173,-0.0868327
197.7,13.4847,0.945485,-0.08991
200.4,13.7409,0.958829,-0.0910782
203.1,13.9966,0.947647,-0.0901285
205.8,14.2542,0.949954,-0.0914498
208.5,14.51,0.953211,-0.0928654
211.2,14.7672,0.954521,-0.09649
213.9,15.0233,0.967318,-0.0951868
216.6,15.2795,0.961241,-0.0991303
219.3,15.5365,0.963535,-0.098471
222,15.7935,0.964077,-0.10003
224.7,16.0488,0.976728,-0.10111
227.4,16.3042,0.980367,-0.102428
230.1,16.562,0.975925,-0.104396
232.8,16.8181,0.983602,-0.10517
235.5,17.0744,0.989736,-0.107275
238.2,17.3305,0.986466,-0.108347
240.9,17.5884,0.98619,-0.110746
243.6,17.8448,0.971945,-0.115993
246.3,18.0999,0.975733,-0.115929
249,18.3565,0.969943,-0.119547
251.7,18.6162,0.966557,-0.121047
254.4,18.8731,0.965581,-0.123169
257.1,19.1296,0.965905,-0.124954
259.8,19.3869,0.960695,-0.1302
262.5,19.6446,0.967711,-0.13152
265.2,19.9017,0.95374,-0.13557
267.9,20.1592,0.961318,-0.137874
270.6,20.4164,0.961459,-0.145094
273.3,20.675,0.959502,-0.149128
276,20.9318,0.960841,-0.148773
278.7,21.1901,0.955131,-0.153089
281.4,21.4475,0.955594,-0.155356
284.1,21.7063,0.951997,-0.161935
286.8,21.9646,0.955125,-0.164508
289.5,22.2228,0.949972,-0.167153
292.2,22.4811,0.956204,-0.17214
294.9,22.7406,0.952187,-0.17495
297.6,22.9988,0.954447,-0.179157
300.3,23.2574,0.95779,-0.181801
303,23.5162,0.958198,-0.186643
305.7,23.7755,0.964339,-0.188387
308.4,24.0346,0.95525,-0.192334
311.1,24.2936,0.949272,-0.196291
313.8,24.5536,0.942472,-0.19991
316.5,24.8107,0.934407,-0.202987
319.2,25.0723,0.92759,-0.204298
321.9,25.331,0.925921,-0.208666
324.6,25.5914,0.923608,-0.210777
327.3,25.8518,0.919764,-0.217376
330,26.1121,0.918945,-0.220111
332.7,26.3737,0.920437,-0.223663
335.4,26.6343,0.934424,-0.224978
338.1,26.8958,0.924844,-0.230748
340.8,27.1561,0.914139,-0.233315
343.5,27.4168,0.913062,-0.239315
346.2,27.6791,0.907831,-0.241973
348.9,27.9406,0.893246,-0.246693
351.6,28.2028,0.893459,-0.249868
354.3,28.4648,0.891298,-0.256782
357,28.7261,0.870882,-0.260976
359.7,28.9864,0.868974,-0.26757
362.4,29.2493,0.865464,-0.270279
365.1,29.5122,0.865778,-0.274791
367.8,29.7746,0.852343,-0.277751
370.5,30.0359,0.861422,-0.286363
373.2,30.2977,0.845596,-0.290274
375.9,30.5607,0.859463,-0.294886
378.6,30.8243,0.865703,-0.301574
381.3,31.0865,0.863937,-0.30357
384,31.3501,0.873687,-0.310021
386.7,31.6141,0.888577,-0.315751
389.4,31.8769,0.901154,-0.319905
392.1,32.1403,0.908593,-0.32647
394.8,32.4037,0.931152,-0.333669
397.5,32.668,0.930513,-0.341523
400.2,32.9321,0.943732,-0.348998
402.9,33.1953,0.949968,-0.359126
405.6,33.4597,0.954055,-0.366027
408.3,33.7239,0.946921,-0.376392
411,33.9885,0.93354,-0.386225
413.7,34.2519,0.927486,-0.396971
416.4,34.517,0.92868,-0.404099
419.1,34.7824,0.926042,-0.413827
421.8,35.0464,0.92943,-0.421826
424.5,35.3114,0.929593,-0.433117
427.2,35.5787,0.937779,-0.440062
429.9,35.8438,0.954179,-0.448888
432.6,36.108,0.952987,-0.45503
435.3,36.3746,0.959316,-0.462113
438,36.6402,0.96244,-0.471516
440.7,36.9058,0.964357,-0.480594
443.4,37.1722,0.966177,-0.487208
446.1,37.4395,0.969442,-0.493918
448.8,37.7056,0.954941,-0.501142
451.5,37.9728,0.931036,-0.509285
454.2,38.2389,0.92472,-0.514548
456.9,38.5051,0.900878,-0.520037
459.6,38.773,0.874391,-0.527358
462.3,39.0378,0.851167,-0.533996
465,39.304,0.840754,-0.540509
467.7,39.5703,0.820171,-0.547343
470.4,39.8369,0.789496,-0.550478
473.1,40.1034,0.754486,-0.557037
475.8,40.3705,0.728056,-0.562369
478.5,40.6376,0.693127,-0.568551
481.2,40.9042,0.673163,-0.569929
483.9,41.1707,0.663776,-0.572353
486.6,41.4358,0.65793,-0.575155
489.3,41.7053,0.643614,-0.579408
492,41.9725,0.639008,-0.58569
494.7,42.2417,0.649878,-0.587215
497.4,42.5098,0.650723,-0.59494
500.1,42.7797,0.663441,-0.60139
502.8,43.0478,0.673247,-0.61087
505.5,43.3164,0.669319,-0.621009
508.2,43.5849,0.663881,-0.624854
510.9,43.8542,0.650165,-0.639433
513.6,44.1212,0.631382,-0.650654
516.3,44.3913,0.630284,-0.660282
519,44.6598,0.636525,-0.670877
521.7,44.9295,0.643145,-0.682445
524.4,45.1988,0.656779,-0.692625
527.1,45.4682,0.674892,-0.701652
529.8,45.7388,0.700572,-0.716798
532.5,46.0089,0.740211,-0.726325
535.2,46.2794,0.786467,-0.737298
537.9,46.5498,0.831799,-0.751824
540.6,46.8206,0.907571,-0.76667
543.3,47.0915,0.971911,-0.784237
546,47.3629,1.06408,-0.804405
548.7,47.635,1.14828,-0.823687
551.4,47.9064,1.2321,-0.852103
554.1,48.1784,1.29388,-0.875797
556.8,48.4496,1.3722,-0.908959
559.5,48.7217,1.4502,-0.944392
562.2,48.9931,1.59498,-0.987515
564.9,49.2664,1.77934,-1.03321
567.6,49.5403,1.99452,-1.08926
570.3,49.8125,2.22497,-1.15822
573,50.0867,2.47375,-1.22959
575.7,50.3599,2.65553,-1.31402
578.4,50.6335,2.75685,-1.4086
581.1,50.904,2.66693,-1.50454
583.8,51.1709,2.30879,-1.59322
586.5,51.4356,1.65083,-1.67355
589.2,51.6966,0.85213,-1.72777
591.9,51.9606,0.210683,-1.76015
594.6,52.2278,-0.0895426,-1.77826
597.3,52.4973,-0.201256,-1.78983
600,52.7686,-0.238029,-1.79984
602.7,53.0405,-0.255934,-1.81144
605.4,53.3127,-0.260853,-1.81846
608.1,53.5829,-0.253203,-1.82405
610.8,53.8551,-0.238552,-1.83236
613.5,54.1266,-0.218892,-1.83761
616.2,54.3983,-0.207009,-1.84518
618.9,54.6705,-0.186081,-1.84787
621.6,54.943,-0.150004,-1.8506
624.3,55.2153,-0.125733,-1.85793
627,55.487,-0.105702,-1.86442
629.7,55.7595,-0.0776663,-1.86774
632.4,56.0314,-0.0507806,-1.87333
635.1,56.3036,-0.0279333,-1.87678
637.8,56.577,-0.00954034,-1.87988
640.5,56.8498,0.0357777,-1.88582
643.2,57.1235,0.0575006,-1.88927
645.9,57.3969,0.0761794,-1.89619
648.6,57.67,0.0960095,-1.89951
651.3,57.9434,0.107196,-1.9031
654,58.2157,0.123112,-1.90802
656.7,58.4883,0.163502,-1.9139
659.4,58.7613,0.188127,-1.91656
662.1,59.0334,0.218236,-1.92143
664.8,59.3052,0.249499,-1.92564
667.5,59.5771,0.275968,-1.92966
670.2,59.8492,0.289876,-1.9337
672.9,60.1213,0.31088,-1.93866
675.6,60.3948,0.320695,-1.94558
678.3,60.6667,0.330514,-1.9481
681,60.9398,0.35053,-1.94821
683.7,61.2115,0.351575,-1.95734
686.4,61.4833,0.354195,-1.95996
689.1,61.7561,0.362522,-1.96254
691.8,62.0283,0.372182,-1.96601
694.5,62.3018,0.381675,-1.97158
697.2,62.5728,0.379282,-1.97917
699.9,62.8459,0.388622,-1.98106
702.6,63.1204,0.403982,-1.98437
705.3,63.3934,0.40614,-1.98696
708,63.6674,0.398814,-1.99848
710.7,63.9404,0.395517,-2.00112
713.4,64.2134,0.387991,-2.00815
716.1,64.4873,0.386728,-2.01377
718.8,64.7621,0.374332,-2.01432
721.5,65.0351,0.352672,-2.01823
724.2,65.3097,0.338359,-2.02627
726.9,65.5829,0.315391,-2.03243
729.6,65.8577,0.297016,-2.03846
732.3,66.1316,0.287405,-2.04163
735,66.4045,0.261971,-2.04898
737.7,66.6773,0.218156,-2.05263
740.4,66.9499,0.191435,-2.05488
743.1,67.2228,0.161901,-2.06031
745.8,67.4962,0.124309,-2.06604
748.5,67.7707,0.105592,-2.07002
751.2,68.0447,0.0735073,-2.07662
753.9,68.3195,0.0498309,-2.077
756.6,68.5943,0.0217602,-2.08226
759.3,68.8701,-0.0148006,-2.08625
762,69.145,-0.0308916,-2.09008
764.7,69.4204,-0.048327,-2.09674
767.4,69.6962,-0.0796469,-2.10196
770.1,69.9721,-0.0919423,-2.10583
772.8,70.2478,-0.117904,-2.10576
775.5,70.5235,-0.133831,-2.10533
778.2,70.7989,-0.143743,-2.11077
780.9,71.0749,-0.172141,-2.11343
783.6,71.3508,-0.18411,-2.12131
786.3,71.6267,-0.191404,-2.12235
789,71.9036,-0.200841,-2.12309
791.7,72.1811,-0.2167,-2.12408
794.4,72.4583,-0.231574,-2.13099
797.1,72.7364,-0.251473,-2.13233
799.8,73.0138,-0.258252,-2.13319
802.5,73.2905,-0.266111,-2.13825
805.2,73.5694,-0.267166,-2.13703
807.9,73.8468,-0.268617,-2.13991
810.6,74.1238,-0.26124,-2.13978
813.3,74.4032,-0.256913,-2.14427
816,74.6792,-0.261488,-2.1456
818.7,74.9595,-0.242648,-2.14725
821.4,75.2385,-0.228871,-2.15087
824.1,75.5185,-0.227412,-2.15219
826.8,75.7968,-0.22983,-2.15352
829.5,76.0735,-0.232129,-2.15614
832.2,76.3546,-0.236618,-2.15614
834.9,76.6338,-0.249687,-2.15742
837.6,76.9131,-0.258386,-2.15881
840,77.161,-0.279629,-2.16271

File: Turnout_Gear_Shell_STA_N2_10KData_240529_R1.csv
Temp./C,Time/min,DSC/(mW/mg),Mass loss/mg
60.0,0.0,0.801166,-0.0187754
62.7,0.300491,0.877944,-0.0200395
65.4,0.594467,0.930573,-0.0214043
68.1,0.885756,0.992584,-0.0227301
70.8,1.16997,1.04662,-0.0254039
73.5,1.45303,1.10268,-0.0260148
76.2,1.73587,1.15905,-0.0279585
78.9,2.0146,1.20815,-0.0306435
81.6,2.29084,1.25802,-0.03195
84.3,2.56391,1.30717,-0.03459
87,2.83701,1.3449,-0.0362161
89.7,3.10733,1.36843,-0.0407487
92.4,3.37658,1.38215,-0.04118
95.1,3.64376,1.39469,-0.0438075
97.8,3.90916,1.40164,-0.0467913
100.5,4.17303,1.39244,-0.0450064
103.2,4.43679,1.38939,-0.0490463
105.9,4.69851,1.38133,-0.0528011
108.6,4.96216,1.35795,-0.053898
111.3,5.22321,1.34888,-0.05786
114,5.48469,1.31969,-0.0604983
116.7,5.74507,1.29706,-0.0604926
119.4,6.00505,1.27655,-0.0631418
122.1,6.26567,1.24899,-0.0637811
124.8,6.52685,1.22988,-0.0657502
127.5,6.78512,1.21009,-0.0661005
130.2,7.04581,1.18469,-0.06807
132.9,7.30633,1.1627,-0.0693797
135.6,7.56199,1.14006,-0.07037
138.3,7.82354,1.11573,-0.0696535
141,8.08164,1.09626,-0.0691651
143.7,8.33733,1.07633,-0.07269
146.4,8.59884,1.05579,-0.0733399
149.1,8.85502,1.04441,-0.0733727
151.8,9.11297,1.02325,-0.0731088
154.5,9.36972,1.02339,-0.0736048
157.2,9.62809,1.0107,-0.07367
159.9,9.88395,0.993297,-0.0736699
162.6,10.1411,0.989206,-0.07367
165.3,10.3985,0.977405,-0.0736701
168,10.6558,0.978343,-0.0717757
170.7,10.9126,0.968023,-0.0744103
173.4,11.1679,0.970526,-0.07444
176.1,11.4263,0.95687,-0.073773
178.8,11.6822,0.965763,-0.0751002
181.5,11.938,0.961312,-0.0779492
184.2,12.1957,0.965606,-0.07531
186.9,12.4523,0.957428,-0.0756446
189.6,12.7082,0.966269,-0.07466
192.3,12.9651,0.961683,-0.0764159
195,13.2217,0.971288,-0.07565
197.7,13.4769,0.974934,-0.0773202
200.4,13.7339,0.973245,-0.0763382
203.1,13.9901,0.970803,-0.0776221
205.8,14.2469,0.965266,-0.07707
208.5,14.5026,0.969313,-0.0785
211.2,14.7568,0.97368,-0.0758595
213.9,15.0155,0.9763,-0.07718
216.6,15.2715,0.973735,-0.0786081
219.3,15.5286,0.978371,-0.07795
222,15.7848,0.98186,-0.0780673
224.7,16.0389,0.975082,-0.079077
227.4,16.2968,0.972637,-0.0785413
230.1,16.5533,0.972484,-0.080594
232.8,16.81,0.967298,-0.08058
235.5,17.0664,0.97715,-0.0777359
238.2,17.323,0.977155,-0.0812399
240.9,17.5785,0.989116,-0.0815732
243.6,17.8371,0.98487,-0.0830963
246.3,18.0935,0.977947,-0.0844609
249,18.3509,0.981185,-0.0848521
251.7,18.6079,0.973861,-0.08476
254.4,18.8639,0.985931,-0.08476
257.1,19.1208,0.971301,-0.0870575
259.8,19.3775,0.978069,-0.0877197
262.5,19.6348,0.970989,-0.09036
265.2,19.893,0.980097,-0.0910342
267.9,20.1501,0.978658,-0.0923407
270.6,20.4071,0.985705,-0.0935404
273.3,20.6655,0.973023,-0.09618
276,20.9231,0.974978,-0.0985982
278.7,21.1799,0.967757,-0.100838
281.4,21.438,0.978442,-0.1021
284.1,21.6953,0.969167,-0.10342
286.8,21.9518,0.981456,-0.106341
289.5,22.212,0.972711,-0.10759
292.2,22.4697,0.980081,-0.10891
294.9,22.7274,1.00176,-0.111651
297.6,22.9861,0.993542,-0.11298
300.3,23.2456,0.999715,-0.115281
303,23.5048,0.98128,-0.119215
305.7,23.7636,0.972511,-0.12054
308.4,24.0231,0.973288,-0.122769
311.1,24.2817,0.969834,-0.124509
313.8,24.5415,0.967838,-0.127228
316.5,24.8,0.969043,-0.128667
319.2,25.0604,0.96956,-0.131299
321.9,25.32,0.983129,-0.13262
324.6,25.5799,0.975666,-0.132827
327.3,25.8414,0.973422,-0.136345
330,26.1014,0.965351,-0.138649
332.7,26.3624,0.965214,-0.14074
335.4,26.6227,0.963685,-0.143585
338.1,26.8832,0.962342,-0.146011
340.8,27.144,0.957076,-0.150012
343.5,27.4059,0.956117,-0.151282
346.2,27.6665,0.950888,-0.1559
348.9,27.927,0.949621,-0.158532
351.6,28.1886,0.949346,-0.161494
354.3,28.4499,0.939344,-0.164994
357,28.7113,0.936179,-0.169355
359.7,28.9724,0.931352,-0.17335
362.4,29.2333,0.922327,-0.178428
365.1,29.4957,0.906833,-0.182903
367.8,29.7563,0.900936,-0.1862
370.5,30.0175,0.895967,-0.189522
373.2,30.2797,0.888954,-0.19354
375.9,30.5418,0.884723,-0.200117
378.6,30.8047,0.88137,-0.20376
381.3,31.0673,0.883199,-0.20673
384,31.33,0.882619,-0.209525
386.7,31.5916,0.884527,-0.21584
389.4,31.8544,0.885725,-0.220286
392.1,32.1186,0.895263,-0.224192
394.8,32.3814,0.892843,-0.229498
397.5,32.6449,0.894134,-0.235701
400.2,32.9085,0.891559,-0.243519
402.9,33.1733,0.882777,-0.250072
405.6,33.4365,0.874729,-0.256802
408.3,33.7007,0.87418,-0.263831
411,33.964,0.857692,-0.273188
413.7,34.2289,0.846545,-0.280859
416.4,34.4929,0.835078,-0.288834
419.1,34.7556,0.8271,-0.297318
421.8,35.0214,0.813756,-0.301834
424.5,35.2867,0.80395,-0.308757
427.2,35.5514,0.807713,-0.315394
429.9,35.8148,0.813958,-0.319582
432.6,36.081,0.809795,-0.32519
435.3,36.3459,0.823293,-0.329909
438,36.6116,0.832336,-0.33463
440.7,36.8777,0.837782,-0.34155
443.4,37.1435,0.857205,-0.342854
446.1,37.4088,0.871779,-0.349777
448.8,37.6758,0.865006,-0.354554
451.5,37.9417,0.871893,-0.359664
454.2,38.2094,0.872731,-0.364759
456.9,38.4752,0.876654,-0.368922
459.6,38.7413,0.871805,-0.37405
462.3,39.0084,0.871912,-0.37953
465,39.2759,0.871159,-0.386654
467.7,39.5401,0.866484,-0.391575
470.4,39.8064,0.856726,-0.397206
473.1,40.0769,0.846799,-0.403764
475.8,40.3449,0.839814,-0.409159
478.5,40.6113,0.833437,-0.41586
481.2,40.878,0.814874,-0.41992
483.9,41.1463,0.80532,-0.426968
486.6,41.4145,0.796536,-0.431398
489.3,41.679,0.794259,-0.442387
492,41.95,0.812169,-0.447912
494.7,42.2178,0.835332,-0.456971
497.4,42.4851,0.860557,-0.467803
500.1,42.7531,0.885235,-0.479165
502.8,43.0201,0.923156,-0.490754
505.5,43.2895,0.971235,-0.503589
508.2,43.5586,1.0425,-0.520023
510.9,43.8282,1.07679,-0.538034
513.6,44.0968,1.06729,-0.556331
516.3,44.3643,1.0202,-0.573424
519,44.6334,0.964628,-0.589656
521.7,44.9032,0.911113,-0.605121
524.4,45.1704,0.897611,-0.6203
527.1,45.4405,0.920364,-0.633842
529.8,45.7104,0.957089,-0.64809
532.5,45.9796,1.02054,-0.663507
535.2,46.2504,1.09497,-0.680325
537.9,46.518,1.18132,-0.699876
540.6,46.7905,1.29708,-0.718692
543.3,47.0626,1.41001,-0.740161
546,47.3349,1.54054,-0.76792
548.7,47.6067,1.68277,-0.798598
551.4,47.8765,1.82805,-0.831617
554.1,48.1479,1.96102,-0.872322
556.8,48.4199,2.08748,-0.918022
559.5,48.691,2.22883,-0.972902
562.2,48.9644,2.41107,-1.03699
564.9,49.2389,2.61986,-1.1076
567.6,49.5106,2.83694,-1.18981
570.3,49.7838,2.98179,-1.27953
573,50.0542,3.00871,-1.37684
575.7,50.321,2.77092,-1.47279
578.4,50.586,2.15918,-1.55594
581.1,50.8449,1.25468,-1.61825
583.8,51.1061,0.513264,-1.65319
586.5,51.3756,0.198543,-1.67111
589.2,51.6432,0.0871811,-1.68477
591.9,51.9124,0.0373052,-1.69324
594.6,52.1838,0.0122177,-1.70254
597.3,52.4534,0.00608263,-1.70907
600,52.7253,0.00727853,-1.7163
602.7,52.9964,0.0232254,-1.72199
605.4,53.268,0.0364727,-1.72907
608.1,53.5398,0.0513403,-1.73442
610.8,53.8088,-0.00897705,-1.73998
613.5,54.0832,0.0572255,-1.74503
616.2,54.3557,0.0838419,-1.75097
618.9,54.6275,0.0969237,-1.75446
621.6,54.8979,0.121708,-1.7581
624.3,55.1717,0.150442,-1.76335
627,55.4433,0.164547,-1.76852
629.7,55.7158,0.189707,-1.77175
632.4,55.9891,0.215598,-1.77718
635.1,56.2619,0.226255,-1.78295
637.8,56.5338,0.252922,-1.78651
640.5,56.8058,0.269776,-1.79044
643.2,57.0773,0.291487,-1.79705
645.9,57.3506,0.31817,-1.80222
648.6,57.6221,0.326799,-1.80606
651.3,57.8948,0.355856,-1.80992
654,58.1672,0.366949,-1.8134
656.7,58.4395,0.386157,-1.8192
659.4,58.7108,0.402745,-1.82263
662.1,58.9842,0.421542,-1.82725
664.8,59.2564,0.430145,-1.83153
667.5,59.5275,0.448998,-1.83679
670.2,59.8025,0.465796,-1.83945
672.9,60.0753,0.479103,-1.84601
675.6,60.3482,0.489591,-1.84865
678.3,60.6212,0.486184,-1.85424
681,60.8947,0.491705,-1.85802
683.7,61.1681,0.493928,-1.86491
686.4,61.4407,0.49671,-1.86785
689.1,61.7133,0.491388,-1.87192
691.8,61.9864,0.492095,-1.87601
694.5,62.2594,0.482527,-1.87938
697.2,62.5313,0.455986,-1.88487
699.9,62.8046,0.448316,-1.89014
702.6,63.0769,0.439153,-1.8941
705.3,63.3507,0.415472,-1.89965
708,63.6246,0.375389,-1.90331
710.7,63.8974,0.34112,-1.90859
713.4,64.1711,0.300239,-1.91492
716.1,64.4457,0.259384,-1.91792
718.8,64.7186,0.217803,-1.92187
721.5,64.9924,0.170589,-1.92474
724.2,65.2667,0.127121,-1.9319
726.9,65.5406,0.0887141,-1.93406
729.6,65.8141,0.0581396,-1.93948
732.3,66.0885,0.00363727,-1.94477
735,66.3627,0.00807267,-1.94842
737.7,66.637,-0.0456963,-1.95261
740.4,66.9118,-0.0772435,-1.95557
743.1,67.1861,-0.11679,-1.95787
745.8,67.4606,-0.141822,-1.96113
748.5,67.736,-0.169931,-1.96677
751.2,68.0108,-0.199221,-1.97167
753.9,68.2868,-0.238288,-1.97221
756.6,68.5619,-0.258162,-1.97696
759.3,68.8385,-0.276432,-1.97896
762,69.1142,-0.30592,-1.98298
764.7,69.3909,-0.326549,-1.98491
767.4,69.6662,-0.344194,-1.98846
770.1,69.9435,-0.357134,-1.99158
772.8,70.2195,-0.367473,-1.99444
775.5,70.4968,-0.374806,-1.99737
778.2,70.7732,-0.387614,-1.99872
780.9,71.0501,-0.398375,-1.99999
783.6,71.3262,-0.413199,-2.00399
786.3,71.6027,-0.424311,-2.00596
789,71.8788,-0.433108,-2.00882
791.7,72.1555,-0.447231,-2.01114
794.4,72.432,-0.455119,-2.01116
797.1,72.7087,-0.467818,-2.01462
799.8,72.9854,-0.480156,-2.0153
802.5,73.2629,-0.47734,-2.01662
805.2,73.5402,-0.484791,-2.01792
807.9,73.8173,-0.493777,-2.01925
810.6,74.0962,-0.499574,-2.02221
813.3,74.3726,-0.507467,-2.02584
816,74.6514,-0.513591,-2.02717
818.7,74.9284,-0.555542,-2.02649
821.4,75.2074,-0.557372,-2.02815
824.1,75.4855,-0.562242,-2.03012
826.8,75.763,-0.559194,-2.03132
829.5,76.0413,-0.574212,-2.03209
832.2,76.3186,-0.596374,-2.03474
834.9,76.5961,-0.605591,-2.0367
837.6,76.8749,-0.616693,-2.03802
840,77.1217,-0.609379,-2.04066