Folder: fsri_materials_database/01_Data/Turnout_Gear_Shell/STA/N2/10K_min

File: Turnout_Gear_Shell_STA_N2_10KData_240514_R1.csv
Temp./C,Time/min,DSC/(mW/mg),Mass loss/mg
60.0,0.0,0.912851,-0.0153761
62.7,0.306084,0.993902,-0.0156671
65.4,0.599554,1.0568,-0.0168319
68.1,0.886323,1.12079,-0.0188943
70.8,1.17289,1.19044,-0.0208702
73.5,1.45556,1.24301,-0.0225116
76.2,1.73441,1.30882,-0.0241501
78.9,2.01398,1.35093,-0.0261301
81.6,2.29222,1.40027,-0.0287702
84.3,2.56556,1.44861,-0.0300913
87,2.83802,1.49032,-0.0320598
89.7,3.10587,1.51123,-0.0356904
92.4,3.37651,1.53185,-0.0369948
95.1,3.6449,1.54079,-0.0382936
97.8,3.90971,1.56132,-0.0400999
100.5,4.17434,1.56786,-0.043935
103.2,4.43701,1.56062,-0.0437002
105.9,4.69952,1.55925,-0.0473201
108.6,4.96269,1.54423,-0.04864
111.3,5.22423,1.53886,-0.0514651
114,5.48515,1.52671,-0.052644
116.7,5.74808,1.51428,-0.0539096
119.4,6.00673,1.50589,-0.0548501
122.1,6.26752,1.49209,-0.0575299
124.8,6.52808,1.47674,-0.0589697
127.5,6.78908,1.44145,-0.06016
130.2,7.04872,1.42536,-0.0608302
132.9,7.30705,1.40487,-0.0608223
135.6,7.56614,1.38337,-0.06214
138.3,7.82537,1.36368,-0.0624487
141,8.08468,1.35305,-0.0626229
143.7,8.34306,1.34688,-0.0641067
146.4,8.60193,1.31718,-0.0661776
149.1,8.85813,1.33127,-0.06543
151.8,9.11537,1.31332,-0.0669287
154.5,9.37251,1.31194,-0.0654404
157.2,9.62919,1.30836,-0.066752
159.9,9.88594,1.30973,-0.067869
162.6,10.1428,1.29846,-0.0673019
165.3,10.3998,1.29798,-0.0672997
168,10.6559,1.30166,-0.06861
170.7,10.9135,1.30038,-0.0671635
173.4,11.1697,1.31464,-0.06993
176.1,11.4278,1.32388,-0.06993
178.8,11.6828,1.3207,-0.0708992
181.5,11.9393,1.32381,-0.0703065
184.2,12.1958,1.33507,-0.07027
186.9,12.453,1.35357,-0.0728909
189.6,12.7082,1.35306,-0.0699828
192.3,12.9651,1.35114,-0.0712397
195,13.2201,1.36254,-0.0722423
197.7,13.4771,1.36494,-0.0728999
200.4,13.7322,1.38463,-0.0715765
203.1,13.9882,1.37939,-0.0732299
205.8,14.2454,1.40096,-0.0745421
208.5,14.5014,1.40493,-0.07454
211.2,14.7587,1.40227,-0.0759019
213.9,15.0155,1.41229,-0.0742298
216.6,15.2705,1.42285,-0.0745957
219.3,15.5276,1.42973,-0.0765186
222,15.7838,1.43812,-0.0765401
224.7,16.0385,1.41992,-0.0762107
227.4,16.2954,1.44343,-0.07751
230.1,16.5516,1.44534,-0.0781629
232.8,16.8073,1.45421,-0.0798105
235.5,17.0649,1.44195,-0.0791471
238.2,17.3208,1.45322,-0.0804938
240.9,17.5776,1.44947,-0.0828505
243.6,17.8334,1.4576,-0.0844101
246.3,18.0893,1.47182,-0.08443
249,18.3448,1.47943,-0.08575
251.7,18.6013,1.47838,-0.08706
254.4,18.8567,1.47633,-0.08706
257.1,19.1123,1.48289,-0.0890207
259.8,19.3705,1.48624,-0.0883462
262.5,19.6261,1.48494,-0.0900313
265.2,19.882,1.49763,-0.09233
267.9,20.1392,1.49018,-0.09332
270.6,20.3966,1.4836,-0.0937516
273.3,20.6533,1.4849,-0.09496
276,20.9115,1.50672,-0.0975898
278.7,21.1696,1.51485,-0.0976331
281.4,21.4277,1.52462,-0.103065
284.1,21.6846,1.53245,-0.101881
286.8,21.9412,1.52699,-0.10326
289.5,22.1993,1.54075,-0.10683
292.2,22.4575,1.54381,-0.106812
294.9,22.7153,1.55739,-0.109459
297.6,22.9715,1.55829,-0.11078
300.3,23.2304,1.55284,-0.114717
303,23.49,1.5601,-0.116047
305.7,23.7474,1.56893,-0.11755
308.4,24.0064,1.57486,-0.118187
311.1,24.2643,1.58382,-0.120863
313.8,24.5238,1.58413,-0.122189
316.5,24.7838,1.58221,-0.12482
319.2,25.0419,1.59298,-0.128448
321.9,25.3009,1.61165,-0.129086
324.6,25.5582,1.62101,-0.131742
327.3,25.8197,1.64312,-0.135676
330,26.0794,1.64094,-0.13701
332.7,26.3403,1.63462,-0.14096
335.4,26.5984,1.6383,-0.1436
338.1,26.8599,1.63521,-0.146227
340.8,27.1198,1.61368,-0.148179
343.5,27.3803,1.62344,-0.15249
346.2,27.6405,1.60247,-0.15513
348.9,27.9004,1.60464,-0.15776
351.6,28.1615,1.59128,-0.161395
354.3,28.4213,1.58817,-0.165003
357,28.6825,1.58211,-0.168082
359.7,28.9427,1.57291,-0.17061
362.4,29.2041,1.55204,-0.1749
365.1,29.4653,1.55433,-0.178863
367.8,29.7272,1.55676,-0.182799
370.5,29.9887,1.52964,-0.186061
373.2,30.2519,1.53875,-0.19004
375.9,30.5145,1.53232,-0.193989
378.6,30.7752,1.52144,-0.198043
381.3,31.0371,1.53172,-0.201243
384,31.3001,1.5419,-0.205718
386.7,31.563,1.52353,-0.208221
389.4,31.8266,1.52805,-0.212226
392.1,32.0901,1.529,-0.21803
394.8,32.3536,1.53776,-0.221329
397.5,32.6173,1.53772,-0.22704
400.2,32.8801,1.54448,-0.2311
402.9,33.1446,1.54539,-0.23566
405.6,33.4083,1.55943,-0.240479
408.3,33.6716,1.56664,-0.244932
411,33.9352,1.57704,-0.24756
413.7,34.1992,1.58613,-0.254221
416.4,34.4628,1.60275,-0.259547
419.1,34.7265,1.6077,-0.26348
421.8,34.9899,1.61741,-0.26941
424.5,35.2548,1.62921,-0.274786
427.2,35.5197,1.64373,-0.279055
429.9,35.7838,1.65011,-0.284095
432.6,36.0492,1.65806,-0.291025
435.3,36.3144,1.65744,-0.296104
438,36.5808,1.67484,-0.302134
440.7,36.8477,1.67921,-0.307398
443.4,37.1122,1.69906,-0.312834
446.1,37.3781,1.70759,-0.318037
448.8,37.6435,1.71453,-0.325531
451.5,37.9087,1.73311,-0.330056
454.2,38.1731,1.74611,-0.336353
456.9,38.4389,1.74202,-0.342755
459.6,38.7043,1.74971,-0.348178
462.3,38.97,1.75352,-0.352407
465,39.2356,1.75673,-0.357669
467.7,39.502,1.7549,-0.36463
470.4,39.7675,1.74207,-0.369522
473.1,40.0339,1.73029,-0.373868
475.8,40.2991,1.70645,-0.380401
478.5,40.5665,1.69646,-0.386769
481.2,40.8324,1.67762,-0.392374
483.9,41.0989,1.64802,-0.395
486.6,41.3659,1.62635,-0.400285
489.3,41.6331,1.60806,-0.404236
492,41.8996,1.5793,-0.409123
494.7,42.1664,1.57476,-0.412772
497.4,42.4349,1.54969,-0.41581
500.1,42.7021,1.54121,-0.42102
502.8,42.9687,1.54079,-0.423661
505.5,43.2379,1.5669,-0.429889
508.2,43.5058,1.57219,-0.433167
510.9,43.7736,1.59013,-0.436605
513.6,44.0411,1.59129,-0.442216
516.3,44.3104,1.61371,-0.449121
519,44.579,1.64516,-0.45233
521.7,44.8488,1.67226,-0.460332
524.4,45.1176,1.71415,-0.468133
527.1,45.3869,1.75946,-0.475279
529.8,45.656,1.81149,-0.486153
532.5,45.9258,1.89261,-0.496913
535.2,46.196,1.98919,-0.50868
537.9,46.4649,2.0991,-0.524273
540.6,46.7348,2.23274,-0.541737
543.3,47.0024,2.38404,-0.559876
546,47.2756,2.54025,-0.58314
548.7,47.5471,2.71094,-0.61042
551.4,47.817,2.87432,-0.642973
554.1,48.0886,3.0268,-0.68374
556.8,48.3594,3.1866,-0.727629
559.5,48.6303,3.37292,-0.782149
562.2,48.9024,3.5725,-0.846385
564.9,49.1758,3.8437,-0.920164
567.6,49.4496,4.15891,-1.00794
570.3,49.7234,4.48447,-1.10944
573,49.9977,4.76284,-1.22354
575.7,50.2706,4.89515,-1.35001
578.4,50.5397,4.75246,-1.47921
581.1,50.8051,4.18855,-1.59942
583.8,51.0646,3.13626,-1.69501
586.5,51.3211,1.88956,-1.75502
589.2,51.5831,1.21232,-1.7807
591.9,51.8498,0.987265,-1.79671
594.6,52.1194,0.902283,-1.80884
597.3,52.3887,0.859808,-1.81857
600,52.6589,0.85681,-1.8246
602.7,52.929,0.865056,-1.83131
605.4,53.2001,0.875586,-1.838
608.1,53.4711,0.89784,-1.8439
610.8,53.7421,0.903935,-1.84936
613.5,54.0127,0.919878,-1.85425
616.2,54.2841,0.944793,-1.85918
618.9,54.5553,0.971381,-1.86446
621.6,54.8277,0.986599,-1.86983
624.3,55.0994,1.0146,-1.87246
627,55.372,1.02205,-1.87752
629.7,55.6435,1.04784,-1.88171
632.4,55.9157,1.07151,-1.8856
635.1,56.1871,1.09154,-1.89058
637.8,56.4559,1.11493,-1.89585
640.5,56.7301,1.14272,-1.89716
643.2,57.0004,1.15982,-1.90122
645.9,57.2721,1.18891,-1.90416
648.6,57.5434,1.20837,-1.91078
651.3,57.8149,1.24166,-1.91348
654,58.0863,1.27102,-1.9165
656.7,58.3587,1.2964,-1.92077
659.4,58.632,1.32794,-1.92599
662.1,58.903,1.34248,-1.92963
664.8,59.1766,1.37389,-1.93394
667.5,59.4484,1.38896,-1.938
670.2,59.7217,1.40999,-1.94207
672.9,59.9915,1.43232,-1.94728
675.6,60.2653,1.44576,-1.95055
678.3,60.5367,1.46309,-1.9565
681,60.8084,1.46553,-1.96371
683.7,61.0798,1.47729,-1.96194
686.4,61.3519,1.46382,-1.96721
689.1,61.6231,1.46806,-1.97118
691.8,61.8946,1.46567,-1.97733
694.5,62.1655,1.45495,-1.9799
697.2,62.44,1.45817,-1.99033
699.9,62.7126,1.44886,-1.98884
702.6,62.9856,1.43435,-1.99542
705.3,63.2581,1.42253,-1.99981
708,63.53,1.40866,-2.00474
710.7,63.801,1.3916,-2.00738
713.4,64.0745,1.36968,-2.01364
716.1,64.3487,1.34388,-2.0176
718.8,64.6193,1.31253,-2.02199
721.5,64.892,1.27697,-2.02576
724.2,65.1614,1.24194,-2.03022
726.9,65.4352,1.19251,-2.03426
729.6,65.7093,1.15623,-2.03775
732.3,65.9818,1.12263,-2.04274
735,66.2543,1.07332,-2.04669
737.7,66.5279,1.0411,-2.04932
740.4,66.8018,0.999776,-2.05197
743.1,67.0751,0.959948,-2.05728
745.8,67.35,0.936838,-2.0615
748.5,67.6253,0.892122,-2.06143
751.2,67.8987,0.86891,-2.06548
753.9,68.1738,0.834063,-2.0692
756.6,68.4486,0.808839,-2.07216
759.3,68.7223,0.779141,-2.07771
762,68.9967,0.756768,-2.07775
764.7,69.2703,0.733014,-2.08136
767.4,69.5462,0.716129,-2.08369
770.1,69.8225,0.69629,-2.08563
772.8,70.0968,0.690236,-2.08896
775.5,70.372,0.681049,-2.09126
778.2,70.6479,0.66538,-2.0939
780.9,70.9227,0.642855,-2.09521
783.6,71.1979,0.639517,-2.09786
786.3,71.4741,0.630067,-2.1012
789,71.75,0.641715,-2.10246
791.7,72.0265,0.664565,-2.10345
794.4,72.3035,0.655,-2.1048
797.1,72.5789,0.667743,-2.10964
799.8,72.8557,0.672563,-2.10806
802.5,73.1308,0.669489,-2.11172
805.2,73.4075,0.67926,-2.11433
807.9,73.685,0.676111,-2.11688
810.6,73.9627,0.704029,-2.11537
813.3,74.2403,0.71868,-2.11925
816,74.5177,0.735095,-2.12157
818.7,74.7958,0.725906,-2.12222
821.4,75.0741,0.744889,-2.12354
824.1,75.3521,0.741242,-2.12722
826.8,75.6297,0.750152,-2.12585
829.5,75.9082,0.742742,-2.1313
832.2,76.185,0.748277,-2.12695
834.9,76.4637,0.755943,-2.13162
837.6,76.7423,0.74405,-2.13334
840,76.9908,0.748473,-2.13522

File: Turnout_Gear_Shell_STA_N2_10KData_240516_R1.csv
Temp./C,Time/min,DSC/(mW/mg),Mass loss/mg
60.0,0.0,1.08011,-0.0546441
62.7,0.301378,1.18299,-0.0527314
65.4,0.594863,1.25935,-0.0530211
68.1,0.884865,1.3387,-0.0574075
70.8,1.16995,1.40048,-0.0600606
73.5,1.45353,1.47769,-0.060367
76.2,1.73432,1.53746,-0.0659883
78.9,2.01338,1.6015,-0.0677797
81.6,2.29117,1.65014,-0.0703358
84.3,2.56553,1.69578,-0.07323
87,2.83877,1.73167,-0.0771796
89.7,3.10897,1.75914,-0.0798147
92.4,3.37451,1.77776,-0.0791519
95.1,3.643,1.78175,-0.0857632
97.8,3.90877,1.78616,-0.08575
100.5,4.17156,1.7845,-0.0896832
103.2,4.43483,1.77524,-0.0919886
105.9,4.69612,1.76432,-0.09464
108.6,4.95951,1.7538,-0.0959516
111.3,5.22148,1.73934,-0.0972676
114,5.48172,1.72328,-0.101222
116.7,5.74282,1.70507,-0.105066
119.4,6.00351,1.69314,-0.10452
122.1,6.26106,1.68536,-0.10452
124.8,6.52422,1.65072,-0.105219
127.5,6.78393,1.61136,-0.11045
130.2,7.04393,1.59152,-0.109799
132.9,7.30184,1.57419,-0.11176
135.6,7.56088,1.55559,-0.11045
138.3,7.81977,1.53992,-0.111877
141,8.07849,1.53247,-0.11451
143.7,8.33595,1.52768,-0.11451
146.4,8.59427,1.51113,-0.11549
149.1,8.85221,1.49635,-0.115464
151.8,9.10957,1.4977,-0.11879
154.5,9.3687,1.49824,-0.118446
157.2,9.62382,1.50746,-0.117799
159.9,9.88274,1.49647,-0.121751
162.6,10.1386,1.50256,-0.118462
165.3,10.3971,1.51304,-0.11824
168,10.652,1.51726,-0.12131
170.7,10.9078,1.52427,-0.12
173.4,11.1669,1.53181,-0.121663
176.1,11.4222,1.53752,-0.121309
178.8,11.6803,1.54673,-0.121972
181.5,11.9375,1.56392,-0.12495
184.2,12.1948,1.58091,-0.123198
186.9,12.4504,1.59453,-0.12461
189.6,12.7082,1.60862,-0.125595
192.3,12.9644,1.6116,-0.12823
195,13.22,1.62472,-0.127244
197.7,13.4772,1.6355,-0.12823
200.4,13.7332,1.64422,-0.12823
203.1,13.99,1.65711,-0.12955
205.8,14.2463,1.6638,-0.131156
208.5,14.5033,1.66861,-0.13383
211.2,14.7598,1.67443,-0.133831
213.9,15.0161,1.68089,-0.134816
216.6,15.272,1.69865,-0.1335
219.3,15.5292,1.70216,-0.136139
222,15.7851,1.70155,-0.138194
224.7,16.0424,1.71414,-0.13745
227.4,16.2988,1.71553,-0.141262
230.1,16.5543,1.72414,-0.14162
232.8,16.813,1.72878,-0.14261
235.5,17.0688,1.72567,-0.142819
238.2,17.3255,1.72941,-0.145574
240.9,17.5816,1.72869,-0.14821
243.6,17.8387,1.74043,-0.148629
246.3,18.0953,1.74513,-0.15085
249,18.3525,1.74682,-0.153443
251.7,18.6087,1.74198,-0.15447
254.4,18.8652,1.74629,-0.154462
257.1,19.1223,1.74673,-0.159081
259.8,19.3799,1.75561,-0.16182
262.5,19.6374,1.75653,-0.166702
265.2,19.8946,1.76129,-0.168387
267.9,20.151,1.75751,-0.171108
270.6,20.4082,1.76714,-0.173012
273.3,20.6667,1.76127,-0.1762
276,20.9252,1.76515,-0.17719
278.7,21.1801,1.76032,-0.178695
281.4,21.4396,1.75573,-0.184354
284.1,21.6981,1.7647,-0.18701
286.8,21.9562,1.76258,-0.190921
289.5,22.2155,1.76295,-0.193661
292.2,22.4739,1.7563,-0.199384
294.9,22.7321,1.76523,-0.199695
297.6,22.9908,1.76997,-0.203511
300.3,23.25,1.76548,-0.205964
303,23.5081,1.76955,-0.20881
305.7,23.7667,1.77062,-0.212279
308.4,24.0258,1.76311,-0.214078
311.1,24.2854,1.76847,-0.216714
313.8,24.5454,1.76524,-0.220668
316.5,24.8045,1.76464,-0.223629
319.2,25.064,1.77082,-0.223631
321.9,25.3236,1.76912,-0.224569
324.6,25.5833,1.76812,-0.22956
327.3,25.8425,1.76918,-0.232211
330,26.1034,1.75873,-0.238891
332.7,26.3628,1.76649,-0.239746
335.4,26.6247,1.76284,-0.242066
338.1,26.8847,1.76131,-0.248661
340.8,27.1469,1.75878,-0.251306
343.5,27.407,1.75687,-0.252778
346.2,27.6677,1.75044,-0.257
348.9,27.9292,1.73988,-0.261321
351.6,28.1909,1.73179,-0.264335
354.3,28.4519,1.72273,-0.26765
357,28.7137,1.71464,-0.2693
359.7,28.9738,1.71765,-0.27457
362.4,29.2364,1.71068,-0.275225
365.1,29.4978,1.69559,-0.280001
367.8,29.7593,1.69054,-0.28401
370.5,30.0217,1.68337,-0.287936
373.2,30.2839,1.67407,-0.291293
375.9,30.5462,1.66385,-0.29521
378.6,30.8097,1.65302,-0.301749
381.3,31.073,1.65353,-0.30366
384,31.3364,1.64192,-0.305063
386.7,31.5995,1.64813,-0.311985
389.4,31.8621,1.64108,-0.315094
392.1,32.128,1.64001,-0.321784
394.8,32.3907,1.63579,-0.324446
397.5,32.6549,1.63803,-0.328384
400.2,32.9175,1.64586,-0.334272
402.9,33.1808,1.64314,-0.341262
405.6,33.4457,1.64813,-0.344137
408.3,33.7095,1.64603,-0.352174
411,33.973,1.64963,-0.357475
413.7,34.2368,1.65646,-0.362772
416.4,34.5014,1.66087,-0.364707
419.1,34.7656,1.66777,-0.374169
421.8,35.0305,1.67816,-0.378455
424.5,35.2943,1.68306,-0.381973
427.2,35.5595,1.69758,-0.384599
429.9,35.8242,1.69352,-0.393541
432.6,36.09,1.69112,-0.400587
435.3,36.356,1.68944,-0.404863
438,36.6217,1.68013,-0.411469
440.7,36.8854,1.68112,-0.418142
443.4,37.151,1.68053,-0.420154
446.1,37.4166,1.68137,-0.428191
448.8,37.6822,1.67613,-0.433427
451.5,37.9482,1.68322,-0.44162
454.2,38.2146,1.68441,-0.445444
456.9,38.4813,1.65627,-0.454313
459.6,38.748,1.65437,-0.45636
462.3,39.016,1.65874,-0.465047
465,39.2833,1.64618,-0.465322
467.7,39.5493,1.63438,-0.474175
470.4,39.8174,1.64371,-0.478117
473.1,40.0851,1.6335,-0.482144
475.8,40.3532,1.59426,-0.489971
478.5,40.6203,1.57615,-0.495241
481.2,40.8874,1.56091,-0.495392
483.9,41.1548,1.54108,-0.503196
486.6,41.4224,1.52396,-0.507117
489.3,41.6886,1.50482,-0.512296
492,41.9585,1.51034,-0.51503
494.7,42.2264,1.49809,-0.517671
497.4,42.4955,1.5023,-0.52026
500.1,42.7626,1.50127,-0.524219
502.8,43.0318,1.49729,-0.526861
505.5,43.2999,1.49445,-0.532985
508.2,43.5694,1.48812,-0.538946
510.9,43.8383,1.49742,-0.542881
513.6,44.1072,1.52229,-0.547134
516.3,44.3762,1.55665,-0.553711
519,44.6452,1.60453,-0.560758
521.7,44.9142,1.66848,-0.571441
524.4,45.1833,1.73691,-0.574351
527.1,45.4535,1.83236,-0.583927
529.8,45.7219,1.9175,-0.598651
532.5,45.9927,2.01521,-0.609466
535.2,46.263,2.07116,-0.626216
537.9,46.5331,2.07314,-0.641543
540.6,46.8059,2.18388,-0.664307
543.3,47.0771,2.31126,-0.690483
546,47.3501,2.4426,-0.713322
548.7,47.6237,2.58269,-0.752059
551.4,47.896,2.7353,-0.791051
554.1,48.1701,2.90544,-0.834417
556.8,48.4435,3.09257,-0.88958
559.5,48.717,3.28445,-0.954051
562.2,48.991,3.51246,-1.02564
564.9,49.2632,3.76925,-1.11486
567.6,49.5404,4.03229,-1.21295
570.3,49.8139,4.23807,-1.32046
573,50.0862,4.3035,-1.43679
575.7,50.3549,4.09904,-1.55792
578.4,50.6202,3.50348,-1.66754
581.1,50.8796,2.48637,-1.74597
583.8,51.1391,1.48072,-1.79376
586.5,51.4042,1.02153,-1.8143
589.2,51.6726,0.887632,-1.83011
591.9,51.9435,0.911585,-1.84039
594.6,52.2157,0.942563,-1.84974
597.3,52.4871,1.01594,-1.85996
600,52.7585,1.09048,-1.86412
602.7,53.0294,1.15651,-1.87071
605.4,53.3004,1.24413,-1.87498
608.1,53.5712,1.34665,-1.87951
610.8,53.8423,1.42497,-1.88467
613.5,54.1161,1.47551,-1.88736
616.2,54.3885,1.51404,-1.89255
618.9,54.6605,1.53849,-1.89886
621.6,54.9338,1.54482,-1.90046
624.3,55.2063,1.53337,-1.90571
627,55.4786,1.52391,-1.91101
629.7,55.7514,1.50459,-1.91608
632.4,56.0234,1.48725,-1.91869
635.1,56.2956,1.45228,-1.92
637.8,56.5673,1.4297,-1.92635
640.5,56.8394,1.39905,-1.92952
643.2,57.1112,1.38067,-1.93341
645.9,57.3844,1.35771,-1.93997
648.6,57.6578,1.34414,-1.94657
651.3,57.9297,1.34445,-1.94514
654,58.2026,1.34402,-1.9492
656.7,58.4776,1.33869,-1.95434
659.4,58.7519,1.33122,-1.95974
662.1,59.0264,1.331,-1.96108
664.8,59.3002,1.32022,-1.96764
667.5,59.574,1.31549,-1.97226
670.2,59.8477,1.3037,-1.97599
672.9,60.123,1.29937,-1.98117
675.6,60.3972,1.30198,-1.9852
678.3,60.6713,1.29299,-1.98915
681,60.946,1.29824,-1.99295
683.7,61.2181,1.30255,-1.99446
686.4,61.4936,1.306,-1.9999
689.1,61.7666,1.29434,-2.00519
691.8,62.0405,1.29222,-2.00886
694.5,62.3153,1.2852,-2.01674
697.2,62.5888,1.28445,-2.01939
699.9,62.8635,1.26945,-2.02437
702.6,63.1387,1.24178,-2.02453
705.3,63.4129,1.22695,-2.03506
708,63.6873,1.20978,-2.03637
710.7,63.962,1.194,-2.04175
713.4,64.2361,1.15986,-2.04517
716.1,64.5115,1.13945,-2.04804
718.8,64.7857,1.10616,-2.05328
721.5,65.0599,1.08153,-2.05853
724.2,65.3317,1.05286,-2.05974
726.9,65.6091,1.01828,-2.06515
729.6,65.8836,0.983708,-2.06777
732.3,66.1564,0.949778,-2.07398
735,66.4314,0.914741,-2.07703
737.7,66.7055,0.892573,-2.07944
740.4,66.9791,0.856854,-2.08325
743.1,67.2538,0.830228,-2.08817
745.8,67.5279,0.797919,-2.09117
748.5,67.804,0.779006,-2.09258
751.2,68.0783,0.748126,-2.09522
753.9,68.3529,0.727234,-2.09938
756.6,68.6291,0.696492,-2.09939
759.3,68.9028,0.668719,-2.10226
762,69.178,0.653053,-2.10894
764.7,69.4519,0.616082,-2.10987
767.4,69.725,0.599356,-2.11519
770.1,69.999,0.582082,-2.11652
772.8,70.2735,0.577619,-2.11519
775.5,70.5486,0.559198,-2.11914
778.2,70.8243,0.549798,-2.12442
780.9,71.0981,0.549369,-2.12732
783.6,71.3719,0.543144,-2.12486
786.3,71.6462,0.526526,-2.12769
789,71.9189,0.494194,-2.13013
791.7,72.1937,0.458324,-2.13185
794.4,72.466,0.39917,-2.13483
797.1,72.7404,0.34889,-2.13704
799.8,73.0147,0.263812,-2.14039
802.5,73.2881,0.177855,-2.14165
805.2,73.5595,0.0991862,-2.14309
807.9,73.8329,0.0230794,-2.14407
810.6,74.1074,-0.0405842,-2.14935
813.3,74.3802,-0.0877945,-2.14646
816,74.6554,-0.145216,-2.14928
818.7,74.9308,-0.203681,-2.15317
821.4,75.2048,-0.25296,-2.15351
824.1,75.4804,-0.299684,-2.15483
826.8,75.7555,-0.338593,-2.15404
829.5,76.03,-0.376183,-2.15703
832.2,76.3034,-0.401591,-2.15659
834.9,76.5786,-0.431382,-2.16103
837.6,76.8537,-0.453262,-2.1628
840,77.0984,-0.465121,-2.1635