Folder: fsri_materials_database/01_Data/PE_Foam_Pipe_Insulation/STA/N2/10K_min

File: PE_Foam_Pipe_STA_N2_10KData_220923_R2.csv
##Temp./Â°C,Time/min,DSC/(mW/mg),Mass loss/mg
51.0,10.763,-1.56269,-0.0400535
52.7,11.28,-1.34764,-0.035835
54.4,11.6132,-1.22175,-0.0329128
56.1,11.891,-1.12727,-0.0324037
57.8,12.141,-1.05658,-0.037487
59.5,12.3834,-0.9973,-0.0339213
61.2,12.6086,-0.957776,-0.0349698
62.9,12.8262,-0.931788,-0.036501
64.6,13.0385,-0.91154,-0.0362445
66.3,13.2452,-0.890342,-0.0357682
68,13.4472,-0.868416,-0.0366245
69.7,13.6469,-0.845648,-0.0362171
71.4,13.8389,-0.820949,-0.0355129
73.1,14.0348,-0.793962,-0.0367046
74.8,14.2264,-0.766793,-0.0383344
76.5,14.414,-0.740928,-0.0392902
78.2,14.6007,-0.713938,-0.0379363
79.9,14.7855,-0.68521,-0.0392862
81.6,14.9673,-0.657509,-0.0392808
83.3,15.1482,-0.629146,-0.0393538
85,15.3275,-0.599371,-0.0392566
86.7,15.5053,-0.570533,-0.040727
88.4,15.682,-0.542345,-0.0407255
90.1,15.8581,-0.510541,-0.0394197
91.8,16.0312,-0.480053,-0.0419657
93.5,16.2036,-0.440642,-0.0420492
95.2,16.3764,-0.400777,-0.0420854
96.9,16.5479,-0.357305,-0.042041
98.6,16.7177,-0.331871,-0.0434376
100.3,16.8881,-0.306939,-0.0434679
102,17.0574,-0.264696,-0.044796
103.7,17.2261,-0.206025,-0.0448042
105.4,17.3949,-0.128178,-0.044791
107.1,17.5616,-0.0349592,-0.0420295
108.8,17.7314,0.0825707,-0.0430428
110.5,17.899,0.229861,-0.0431658
112.2,18.0679,0.414662,-0.0457743
113.9,18.2367,0.581447,-0.047107
115.6,18.4045,0.490402,-0.04578
117.3,18.5697,-0.0778396,-0.0449473
119,18.7328,-0.360619,-0.0433131
120.7,18.8972,-0.47175,-0.0473452
122.4,19.0601,-0.509715,-0.0475302
124.1,19.2239,-0.521048,-0.0475518
125.8,19.3882,-0.520978,-0.0475092
127.5,19.5515,-0.516864,-0.0484974
129.2,19.7152,-0.512638,-0.0477649
130.9,19.8781,-0.504963,-0.0488185
132.6,20.0431,-0.497495,-0.0493039
134.3,20.2066,-0.49043,-0.0495061
136,20.3686,-0.482117,-0.0489719
137.7,20.5315,-0.47724,-0.0495221
139.4,20.6947,-0.466823,-0.0495086
141.1,20.8567,-0.458388,-0.0501755
142.8,21.0188,-0.452795,-0.0501749
144.5,21.1817,-0.444992,-0.0508301
146.2,21.3429,-0.438609,-0.0507615
147.9,21.504,-0.432754,-0.0501345
149.6,21.6657,-0.42393,-0.0520407
151.3,21.8264,-0.417595,-0.0508202
153,21.9903,-0.411623,-0.0508249
154.7,22.1501,-0.406148,-0.0518117
156.4,22.312,-0.397783,-0.0515501
158.1,22.473,-0.392258,-0.0521448
159.8,22.6358,-0.384802,-0.0508209
161.5,22.7964,-0.377384,-0.05214
163.2,22.9582,-0.372202,-0.0514632
164.9,23.1198,-0.364789,-0.0527983
166.6,23.2777,-0.358661,-0.0536724
168.3,23.4402,-0.350755,-0.056072
170,23.603,-0.343075,-0.0556681
171.7,23.765,-0.335264,-0.0511596
173.4,23.9247,-0.33061,-0.0507674
175.1,24.088,-0.325765,-0.0537669
176.8,24.2502,-0.321351,-0.0546719
178.5,24.4101,-0.31451,-0.053346
180.2,24.572,-0.308872,-0.0540121
181.9,24.7312,-0.304265,-0.0556588
183.6,24.8937,-0.298994,-0.0556498
185.3,25.0547,-0.293737,-0.0556803
187,25.216,-0.289663,-0.0563864
188.7,25.3775,-0.284611,-0.0579602
190.4,25.5382,-0.279445,-0.0579681
192.1,25.6985,-0.274499,-0.0579694
193.8,25.8603,-0.268837,-0.0579612
195.5,26.0216,-0.264223,-0.0592209
197.2,26.1811,-0.258477,-0.0605998
198.9,26.3429,-0.254522,-0.0605998
200.6,26.5039,-0.249799,-0.0595175
202.3,26.6658,-0.245081,-0.05928
204,26.8259,-0.240147,-0.0606734
205.7,26.9876,-0.235084,-0.063711
207.4,27.1481,-0.228574,-0.0639384
209.1,27.3098,-0.224087,-0.0637863
210.8,27.4699,-0.219078,-0.0635507
212.5,27.6316,-0.213807,-0.0671722
214.2,27.7927,-0.208652,-0.0684854
215.9,27.9547,-0.202973,-0.0658701
217.6,28.1157,-0.199865,-0.0665302
219.3,28.2771,-0.19371,-0.0684953
221,28.438,-0.190878,-0.0688374
222.7,28.5971,-0.184871,-0.0701404
224.4,28.76,-0.18001,-0.0728674
226.1,28.9214,-0.175472,-0.0718007
227.8,29.0831,-0.172412,-0.0757194
229.5,29.2431,-0.168827,-0.0757648
231.2,29.4068,-0.163874,-0.0770593
232.9,29.5683,-0.160434,-0.0778799
234.6,29.7301,-0.154835,-0.0793697
236.3,29.8921,-0.15338,-0.0811401
238,30.0532,-0.147689,-0.0837907
239.7,30.2149,-0.143574,-0.0849699
241.4,30.3763,-0.138147,-0.08629
243.1,30.5372,-0.135084,-0.0866105
244.8,30.699,-0.130004,-0.0889213
246.5,30.8605,-0.126909,-0.09287
248.2,31.0229,-0.123692,-0.0928122
249.9,31.1837,-0.121501,-0.0945208
251.6,31.3458,-0.118919,-0.0973794
253.3,31.5074,-0.113679,-0.0994601
255,31.6699,-0.110265,-0.100778
256.7,31.8302,-0.107458,-0.102733
258.4,31.9921,-0.104478,-0.104229
260.1,32.1533,-0.101016,-0.106691
261.8,32.3153,-0.0983719,-0.109875
263.5,32.4773,-0.0933131,-0.110576
265.2,32.6378,-0.0916264,-0.11198
266.9,32.8005,-0.0889625,-0.11461
268.6,32.9612,-0.0860495,-0.11593
270.3,33.1234,-0.0832478,-0.118563
272,33.2858,-0.0802121,-0.120862
273.7,33.4473,-0.0789083,-0.122511
275.4,33.6098,-0.0759606,-0.125157
277.1,33.7713,-0.0741467,-0.126447
278.8,33.9335,-0.0715008,-0.12779
280.5,34.0943,-0.0692951,-0.127801
282.2,34.2562,-0.0648646,-0.129099
283.9,34.4201,-0.0634698,-0.131739
285.6,34.5818,-0.060059,-0.13306
287.3,34.7436,-0.0573977,-0.133053
289,34.9062,-0.0535918,-0.136934
290.7,35.0683,-0.0506426,-0.138652
292.4,35.2325,-0.0495014,-0.138985
294.1,35.3945,-0.046239,-0.14063
295.8,35.5561,-0.0451212,-0.14063
297.5,35.7177,-0.0420516,-0.142259
299.2,35.8813,-0.0393782,-0.143039
300.9,36.0438,-0.0367974,-0.14364
302.6,36.2064,-0.033152,-0.14491
304.3,36.3695,-0.0301344,-0.144577
306,36.5313,-0.028435,-0.145836
307.7,36.6948,-0.0249414,-0.149765
309.4,36.8581,-0.0209125,-0.14854
311.1,37.0206,-0.0182433,-0.149845
312.8,37.1827,-0.0140914,-0.15044
314.5,37.3452,-0.00613113,-0.15347
316.2,37.5089,0.0018999,-0.155119
317.9,37.6712,0.0080017,-0.15512
319.6,37.8341,0.0125677,-0.155121
321.3,37.9974,0.0166185,-0.157713
323,38.1601,0.0217374,-0.15907
324.7,38.3224,0.026412,-0.1594
326.4,38.4856,0.0323456,-0.161712
328.1,38.6493,0.0384354,-0.163002
329.8,38.8125,0.0411444,-0.164681
331.5,38.9746,0.0483161,-0.16599
333.2,39.1378,0.0530319,-0.168288
334.9,39.3021,0.0597872,-0.172063
336.6,39.4671,0.0633825,-0.174851
338.3,39.6293,0.069419,-0.17752
340,39.7924,0.074341,-0.181469
341.7,39.9572,0.0806327,-0.184633
343.4,40.1209,0.085256,-0.185476
345.1,40.2857,0.0891154,-0.190693
346.8,40.4497,0.0951986,-0.194869
348.5,40.6125,0.0990626,-0.196486
350.2,40.7748,0.100268,-0.201762
351.9,40.9417,0.100271,-0.208372
353.6,41.1057,0.0995013,-0.210992
355.3,41.2698,0.0991584,-0.213742
357,41.4338,0.0997559,-0.217712
358.7,41.5985,0.0985701,-0.223397
360.4,41.7616,0.0966834,-0.227646
362.1,41.9274,0.0947098,-0.231815
363.8,42.0927,0.0898689,-0.235055
365.5,42.2562,0.0854899,-0.237655
367.2,42.4223,0.0800269,-0.241649
368.9,42.586,0.0772946,-0.246877
370.6,42.7501,0.0720842,-0.24998
372.3,42.9151,0.0689598,-0.25359
374,43.079,0.0643678,-0.25755
375.7,43.2437,0.0608094,-0.259167
377.4,43.4085,0.0560123,-0.260168
379.1,43.5735,0.0496799,-0.26555
380.8,43.7371,0.0439185,-0.268227
382.5,43.9016,0.0382965,-0.26769
384.2,44.0662,0.0349162,-0.27083
385.9,44.2318,0.0320758,-0.274276
387.6,44.3959,0.029361,-0.274781
389.3,44.5609,0.0275532,-0.2761
391,44.7236,0.0277997,-0.27742
392.7,44.8913,0.0292732,-0.278783
394.4,45.0557,0.0322551,-0.28071
396.1,45.2214,0.0349865,-0.282028
397.8,45.386,0.0390253,-0.284636
399.5,45.5514,0.0422688,-0.28731
401.2,45.7165,0.0469098,-0.291265
402.9,45.88,0.049131,-0.29268
404.6,46.0471,0.0533151,-0.295303
406.3,46.2129,0.0597656,-0.296641
408,46.3788,0.0655632,-0.30284
409.7,46.5438,0.069703,-0.30553
411.4,46.7091,0.0752547,-0.308745
413.1,46.8755,0.0809019,-0.314982
414.8,47.0418,0.0857195,-0.316279
416.5,47.2079,0.0924088,-0.322082
418.2,47.3728,0.0985418,-0.32679
419.9,47.5379,0.108371,-0.331276
421.6,47.704,0.118365,-0.339454
423.3,47.8697,0.132916,-0.347248
425,48.035,0.144904,-0.352994
426.7,48.2001,0.15767,-0.362289
428.4,48.3661,0.173609,-0.374489
430.1,48.5318,0.187658,-0.382725
431.8,48.6979,0.203293,-0.393393
433.5,48.8647,0.220431,-0.407967
435.2,49.0301,0.240356,-0.421686
436.9,49.1967,0.264323,-0.437824
438.6,49.3628,0.286145,-0.458866
440.3,49.5291,0.312255,-0.477351
442,49.6956,0.336707,-0.497784
443.7,49.8612,0.367993,-0.524488
445.4,50.0285,0.399747,-0.549858
447.1,50.1948,0.433808,-0.580778
448.8,50.3604,0.46999,-0.617942
450.5,50.5264,0.50852,-0.652104
452.2,50.6944,0.550769,-0.698586
453.9,50.8598,0.597371,-0.744485
455.6,51.0271,0.651437,-0.801018
457.3,51.1943,0.708716,-0.863144
459,51.3598,0.762739,-0.93014
460.7,51.5288,0.822471,-1.008
462.4,51.6943,0.879771,-1.09392
464.1,51.8623,0.940374,-1.19214
465.8,52.0293,1.00746,-1.29727
467.5,52.1965,1.06803,-1.41141
469.2,52.3639,1.12956,-1.53881
470.9,52.5305,1.18285,-1.67592
472.6,52.6983,1.23084,-1.83033
474.3,52.8647,1.267,-1.98994
476,53.0322,1.2899,-2.16008
477.7,53.1983,1.29581,-2.33821
479.4,53.3671,1.27722,-2.52437
481.1,53.5337,1.2453,-2.71898
482.8,53.6986,1.18914,-2.90911
484.5,53.8668,1.10117,-3.09839
486.2,54.0332,0.981049,-3.27559
487.9,54.1999,0.838819,-3.44335
489.6,54.3662,0.669057,-3.59536
491.3,54.5329,0.486861,-3.72373
493,54.6986,0.307744,-3.82622
494.7,54.8645,0.147511,-3.90742
496.4,55.0308,0.0159403,-3.96423
498.1,55.1978,-0.0941179,-4.00788
499.8,55.3644,-0.180282,-4.03089
501.5,55.5312,-0.243316,-4.04619
503.2,55.6986,-0.285348,-4.05678
504.9,55.8664,-0.312261,-4.06219
506.6,56.0343,-0.325077,-4.0623
508.3,56.2013,-0.326026,-4.06368
510,56.3688,-0.321064,-4.06361
511.7,56.5359,-0.312822,-4.06164
513.4,56.7036,-0.310751,-4.06164
515.1,56.8688,-0.311944,-4.06295
516.8,57.0383,-0.31611,-4.06428
518.5,57.2054,-0.323805,-4.06428
520.2,57.3746,-0.332966,-4.06395
521.9,57.5438,-0.343516,-4.06362
523.6,57.7113,-0.349521,-4.06259
525.3,57.878,-0.356946,-4.06559
527,58.0476,-0.361372,-4.06254
528.7,58.2163,-0.363286,-4.06328
530.4,58.3845,-0.36616,-4.0646
532.1,58.5539,-0.368595,-4.06458
533.8,58.7217,-0.368799,-4.06201
535.5,58.8904,-0.368999,-4.06461
537.2,59.0594,-0.368673,-4.06592
538.9,59.227,-0.368274,-4.06739
540.6,59.3956,-0.367538,-4.06625
542.3,59.5636,-0.367102,-4.06494
544,59.7327,-0.368151,-4.06691
545.7,59.901,-0.369072,-4.06691
546,59.9306,-0.367778,-4.06691