Folder: fsri_materials_database/01_Data/SCBA_Bracket/STA/N2/10K_min (part 2)

File: SCBA_Bracket_STA_N2_10KData_240726_R3.csv
Temp./C,Time/min,DSC/(mW/mg),Mass loss/mg
60,0,1.1786,-0.0291067
61.9,0.213336,1.23946,-0.0304854
63.8,0.422081,1.29654,-0.0290593
65.7,0.62632,1.34399,-0.0303922
67.6,0.827681,1.37349,-0.030725
69.5,1.03298,1.38537,-0.0292718
71.4,1.23281,1.40751,-0.0294709
73.3,1.43135,1.41794,-0.0306428
75.2,1.62993,1.42817,-0.0307769
77.1,1.82674,1.43937,-0.0320499
79,2.02119,1.4581,-0.0334814
80.9,2.21657,1.45851,-0.03216
82.8,2.41079,1.47255,-0.0322903
84.7,2.60285,1.48814,-0.0334708
86.6,2.79458,1.52219,-0.03348
88.5,2.98591,1.53276,-0.03348036
90.4,3.17592,1.55425,-0.03480655
92.3,3.36379,1.56724,-0.0339207
94.2,3.55195,1.56856,-0.0347903
96.1,3.74027,1.56582,-0.0347959
98,3.92645,1.56718,-0.03513
99.9,4.11275,1.57102,-0.0340982
101.8,4.29855,1.57077,-0.03611
103.7,4.48458,1.56558,-0.0354521
105.6,4.66986,1.56999,-0.0357923
107.5,4.85611,1.57121,-0.03612
109.4,5.03833,1.5782,-0.03611
111.3,5.22461,1.58269,-0.0365009
113.2,5.40922,1.5884,-0.03479
115.1,5.59394,1.59943,-0.03611117
117,5.77934,1.61132,-0.0359997
118.9,5.96429,1.60864,-0.0359789
120.8,6.14855,1.61482,-0.0353291
122.7,6.33222,1.6249,-0.0363298
124.6,6.51671,1.6356,-0.0354735
126.5,6.69985,1.63799,-0.03765
128.4,6.88497,1.66156,-0.0365365
130.3,7.06682,1.66984,-0.037294
132.2,7.24844,1.68101,-0.0373205
134.1,7.43199,1.694,-0.0373122
136,7.61538,1.7119,-0.0369792
137.9,7.79794,1.72875,-0.03731995
139.8,7.97923,1.72892,-0.0399617
141.7,8.16173,1.73756,-0.03864
143.6,8.34464,1.74908,-0.0386355
145.5,8.52644,1.76191,-0.0386401
147.4,8.7092,1.78084,-0.0386344
149.3,8.89048,1.76901,-0.0396204
151.2,9.07232,1.77877,-0.0409425
153.1,9.25103,1.79051,-0.04193
155,9.43578,1.81166,-0.0406062
156.9,9.61641,1.81795,-0.0422599
158.8,9.79892,1.82495,-0.04226
160.7,9.97646,1.84401,-0.04226
162.6,10.1589,1.85269,-0.0435754
164.5,10.3418,1.85437,-0.0435487
166.4,10.5237,1.86649,-0.04423
168.3,10.7047,1.87707,-0.0442316
170.2,10.8865,1.88735,-0.0442434
172.1,11.0668,1.9038,-0.0448782
174,11.2479,1.92021,-0.0451906
175.9,11.4276,1.92581,-0.0448749
177.8,11.61,1.94571,-0.0458801
179.7,11.7917,1.95573,-0.0474823
181.6,11.9732,1.95859,-0.04622
183.5,12.1543,1.97259,-0.04753
185.4,12.3358,1.97761,-0.04753
187.3,12.5149,1.99234,-0.0488521
189.2,12.6959,2.00157,-0.04786
191.1,12.8771,2.00941,-0.0491605
193,13.0558,2.02352,-0.04819
194.9,13.237,2.03151,-0.0481746
196.8,13.4175,2.04337,-0.04951
198.7,13.5968,2.05249,-0.04951
200.6,13.7793,2.0773,-0.0508214
202.5,13.9594,2.10066,-0.0491795
204.4,14.1404,2.15411,-0.0488721
206.3,14.3216,2.22239,-0.04917
208.2,14.5044,2.34243,-0.05049
210.1,14.6863,2.52323,-0.05049
212,14.8718,2.81331,-0.05049
213.9,15.0575,3.206,-0.0504969
215.8,15.245,3.69486,-0.0521405
217.7,15.4343,4.2855,-0.05214
219.6,15.6233,4.91713,-0.0521399
221.5,15.8124,5.39138,-0.0500078
223.4,15.99,4.98256,-0.0511604
225.3,16.1536,3.40782,-0.05116
227.2,16.3228,2.56899,-0.05116
229.1,16.4982,2.23667,-0.05116
231,16.6767,2.12929,-0.0520004
232.9,16.8562,2.08742,-0.0524702
234.8,17.0349,2.08181,-0.0524754
236.7,17.2145,2.08513,-0.0511495
238.6,17.3948,2.07242,-0.0511494
240.5,17.5757,2.08132,-0.05115
242.4,17.7564,2.07798,-0.05115
244.3,17.9364,2.0907,-0.0501599
246.2,18.117,2.08732,-0.0528001
248.1,18.2981,2.0992,-0.0528
250,18.4784,2.09654,-0.0514789
251.9,18.659,2.09106,-0.05148
253.8,18.8395,2.10285,-0.05148
255.7,19.0219,2.09683,-0.05148
257.6,19.2026,2.0964,-0.0524699
259.5,19.3841,2.09333,-0.05212678
261.4,19.5659,2.10036,-0.0531289
263.3,19.7466,2.11248,-0.051159
265.2,19.9277,2.10026,-0.0524691
267.1,20.1066,2.10182,-0.0514969
269,20.2896,2.11177,-0.0514942
270.9,20.4709,2.11155,-0.0528
272.8,20.6522,2.11904,-0.0528
274.7,20.8335,2.11067,-0.0514701
276.6,21.0148,2.12403,-0.0527999
278.5,21.196,2.10934,-0.0528
280.4,21.3795,2.11445,-0.0512519
282.3,21.5593,2.10945,-0.05214979
284.2,21.7434,2.11609,-0.05313
286.1,21.9253,2.11636,-0.0541236
288,22.1064,2.11869,-0.0528
289.9,22.2875,2.11493,-0.0528
291.8,22.4715,2.11736,-0.05313
293.7,22.6536,2.12283,-0.0524737
295.6,22.8359,2.11818,-0.05346
297.5,23.0167,2.12515,-0.0558256
299.4,23.2005,2.11732,-0.055116
301.3,23.3831,2.11409,-0.0551
303.2,23.5645,2.13141,-0.0564199
305.1,23.7456,2.13262,-0.0549796
307,23.9299,2.13322,-0.0561
308.9,24.1119,2.13652,-0.0558797
310.8,24.2948,2.12764,-0.0553292
312.7,24.4777,2.14076,-0.0585296
314.6,24.6596,2.14162,-0.0584739
316.5,24.8436,2.139,-0.05851
318.4,25.0254,2.15269,-0.05983
320.3,25.2084,2.14127,-0.0611489
322.2,25.3929,2.14348,-0.0610548
324.1,25.5748,2.16059,-0.0616263
326,25.758,2.15386,-0.06051128
327.9,25.9416,2.16533,-0.0627537
329.8,26.1252,2.16264,-0.0631138
331.7,26.3077,2.16168,-0.0631213
333.6,26.4908,2.16064,-0.06511609
335.5,26.6747,2.17014,-0.0660866
337.4,26.8578,2.16725,-0.06674
339.3,27.0422,2.17479,-0.067824
341.2,27.2258,2.17475,-0.0696646
343.1,27.41,2.1734,-0.0697808
345,27.5939,2.18109,-0.0723323
346.9,27.7777,2.1855,-0.07366
348.8,27.9626,2.18999,-0.0749188
350.7,28.1462,2.20145,-0.0788985
352.6,28.3309,2.20893,-0.079046
354.5,28.5154,2.20966,-0.0815259
356.4,28.6997,2.21026,-0.0818895
358.3,28.8844,2.22066,-0.0845268
360.2,29.0685,2.23742,-0.0871283
362.1,29.2537,2.24306,-0.0924273
364,29.4387,2.25154,-0.0937336
365.9,29.6231,2.26172,-0.09899013
367.8,29.8072,2.27481,-0.102906
369.7,29.994,2.29187,-0.106978
371.6,30.1781,2.3066,-0.109585
373.5,30.3632,2.33446,-0.11571
375.4,30.549,2.35436,-0.120674
377.3,30.7346,2.3868,-0.126763
379.2,30.9201,2.40946,-0.132237
381.1,31.1032,2.43674,-0.139
383,31.2917,2.46529,-0.145044
384.9,31.4752,2.51515,-0.154422
386.8,31.6621,2.53614,-0.162086
388.7,31.8496,2.57227,-0.1713118
390.6,32.036,2.61302,-0.181496
392.5,32.2226,2.65485,-0.192087
394.4,32.4085,2.70644,-0.203111
396.3,32.5956,2.75427,-0.215286
398.2,32.7826,2.81688,-0.229619
400.1,32.9698,2.88219,-0.243157
402,33.1563,2.95667,-0.258339
403.9,33.3449,3.02127,-0.275427
405.8,33.532,3.10663,-0.29455
407.7,33.718,3.18544,-0.313419
409.6,33.9071,3.29036,-0.335619
411.5,34.0952,3.37798,-0.360527
413.4,34.2824,3.46327,-0.385741
415.3,34.471,3.60769,-0.417009
417.2,34.6589,3.72308,-0.447689
419.1,34.8467,3.85404,-0.483041
421,35.0347,3.97338,-0.522418
422.9,35.2236,4.03856,-0.562286
424.8,35.4123,4.18369,-0.606413
426.7,35.6027,4.40419,-0.65975
428.6,35.791,4.55989,-0.717429
430.5,35.9807,4.75244,-0.778388
432.4,36.1712,4.93963,-0.845519
434.3,36.3608,5.12483,-0.916416
436.2,36.5505,5.31892,-0.993564
438.1,36.7417,5.53948,-1.07756
440,36.9315,5.73049,-1.16789
441.9,37.1229,5.91902,-1.26635
443.8,37.3124,6.09416,-1.36969
445.7,37.5034,6.26263,-1.47906
447.6,37.692,6.40819,-1.59332
449.5,37.8829,6.52947,-1.71767
451.4,38.0713,6.63575,-1.84147
453.3,38.2605,6.67941,-1.97462
455.2,38.4486,6.62452,-2.10776
457.1,38.6344,6.50944,-2.24315
459,38.8204,6.25705,-2.37676
460.9,39.005,5.91188,-2.50781
462.8,39.1881,5.40895,-2.63028
464.7,39.3691,4.84987,-2.74524
466.6,39.5492,4.23381,-2.84729
468.5,39.7301,3.58833,-2.94026
470.4,39.9108,2.99532,-3.02151
472.3,40.092,2.46271,-3.09016
474.2,40.2741,2.02632,-3.14775
476.1,40.457,1.66908,-3.19617
478,40.6391,1.38377,-3.23767
479.9,40.826,1.18529,-3.27198
481.8,41.0127,1.02974,-3.30082
483.7,41.1993,0.910681,-3.32656
485.6,41.3858,0.812337,-3.34588
487.5,41.5746,0.724847,-3.36294
489.4,41.7619,0.639135,-3.37694
491.3,41.9503,0.576216,-3.38707
493.2,42.1372,0.522079,-3.395
495.1,42.3256,0.473352,-3.39998
497,42.5145,0.458539,-3.40293
498.9,42.7025,0.45766,-3.40427
500.8,42.8916,0.465777,-3.40525
502.7,43.0803,0.447696,-3.40568
504.6,43.2689,0.447953,-3.40525
506.5,43.4576,0.448211,-3.40525
508.4,43.6465,0.442758,-3.40627
510.3,43.8352,0.432005,-3.40592
512.2,44.0244,0.440677,-3.40624
514.1,44.2128,0.437317,-3.40734
516,44.4023,0.434521,-3.40624
517.9,44.5907,0.437832,-3.40624
519.8,44.7804,0.446313,-3.40727
521.7,44.9698,0.438014,-3.40816
523.6,45.1587,0.437214,-3.40756
525.5,45.347,0.447328,-3.40756
527.4,45.5388,0.44111,-3.40888
529.3,45.7291,0.432078,-3.41014
531.2,45.9191,0.45184,-3.40848
533.1,46.1101,0.44241,-3.40755
535,46.2995,0.438368,-3.40811
536.9,46.4918,0.436565,-3.40941
538.8,46.6818,0.432355,-3.40942
540.7,46.8714,0.439304,-3.4081
542.6,47.0621,0.427213,-3.40813
544.5,47.2532,0.430015,-3.40953
546.4,47.4433,0.420464,-3.40827
548.3,47.634,0.409868,-3.40821
550.2,47.8256,0.412876,-3.41026
552.1,48.0152,0.421411,-3.41019
554,48.2057,0.414618,-3.40886
555.9,48.3965,0.421916,-3.40891
557.8,48.5866,0.409806,-3.4102
559.7,48.7777,0.416666,-3.41052
561.6,48.9683,0.412852,-3.41085
563.5,49.1567,0.401495,-3.41085
565.4,49.3499,0.404633,-3.41019
567.3,49.5423,0.399852,-3.41305
569.2,49.733,0.402366,-3.41041
571.1,49.9245,0.400749,-3.40972
573,50.1159,0.386767,-3.41106
574.9,50.3072,0.382745,-3.41107
576.8,50.4975,0.37738,-3.41238
578.7,50.6888,0.362057,-3.4114
580.6,50.88,0.361377,-3.41239
582.5,51.0717,0.352365,-3.41272
584.4,51.2602,0.356166,-3.41018
586.3,51.4532,0.34168,-3.41107
588.2,51.6449,0.345888,-3.41239
590.1,51.8348,0.34228,-3.4114
592,52.0271,0.353792,-3.41239
593.9,52.2187,0.333012,-3.41272
595.8,52.4112,0.329154,-3.41404
597.7,52.6015,0.335091,-3.4127
599.6,52.7927,0.329433,-3.41425
600,52.8336,0.329103,-3.41425