Folder: fsri_materials_database/01_Data/SCBA_Bracket/STA/N2/30K_min (part 2)

File: SCBA_Bracket_STA_N2_30KData_240730_R3.csv
Temp./C,Time/min,DSC/(mW/mg),Mass loss/mg
60,0,2.32261,-0.0117174
61.9,0.0944714,2.6206,-0.0126563
63.8,0.180518,2.89496,-0.0130203
65.7,0.265557,3.13106,-0.0126717
67.6,0.344796,3.34284,-0.0119097
69.5,0.422324,3.53145,-0.0143797
71.4,0.496775,3.69542,-0.0143
73.3,0.569478,3.83928,-0.0149097
75.2,0.640877,3.98049,-0.016422
77.1,0.710178,4.09438,-0.0153657
79,0.779951,4.20752,-0.0160059
80.9,0.847092,4.30071,-0.0161509
82.8,0.915068,4.3998,-0.0173961
84.7,0.981254,4.49081,-0.0173912
86.6,1.04711,4.56687,-0.0172098
88.5,1.11206,4.64736,-0.0176105
90.4,1.17685,4.72249,-0.0182529
92.3,1.2413,4.79149,-0.0180564
94.2,1.3048,4.88111,-0.0196146
96.1,1.36842,4.93539,-0.01833492
98,1.4319,5.00101,-0.018375
99.9,1.49459,5.04289,-0.0190251
101.8,1.55758,5.09554,-0.0196492
103.7,1.61923,5.11115,-0.01956765
105.6,1.68151,5.14058,-0.0198271
107.5,1.74441,5.15199,-0.0203586
109.4,1.80668,5.16894,-0.0196506
111.3,1.86945,5.18417,-0.0209599
113.2,1.93111,5.19615,-0.0212873
115.1,1.99329,5.21669,-0.0225951
117,2.05563,5.23397,-0.0218944
118.9,2.11713,5.25468,-0.0212889
120.8,2.1794,5.28109,-0.0203121
122.7,2.23987,5.30801,-0.0203074
124.6,2.30256,5.32912,-0.0189895
126.5,2.36401,5.35975,-0.0199844
128.4,2.42525,5.3961,-0.0199728
130.3,2.48653,5.43285,-0.0212993
132.2,2.54772,5.46829,-0.0213
134.1,2.60868,5.50199,-0.0213
136,2.66956,5.54442,-0.0212988
137.9,2.73007,5.58274,-0.02065686
139.8,2.79046,5.62053,-0.0207225
141.7,2.85104,5.67652,-0.0209761
143.6,2.91138,5.71812,-0.02097
145.5,2.97146,5.76149,-0.0209972
147.4,3.03149,5.8053,-0.0219585
149.3,3.09154,5.8455,-0.02196
151.2,3.15111,5.89645,-0.0219598
153.1,3.2108,5.94385,-0.0223199
155,3.27026,5.98784,-0.02229
156.9,3.33022,6.03923,-0.02228999
158.8,3.38901,6.07893,-0.0222632
160.7,3.44869,6.11864,-0.0209699
162.6,3.5083,6.16915,-0.02097
164.5,3.5675,6.20966,-0.020983
166.4,3.6265,6.25646,-0.0224522
168.3,3.6855,6.29497,-0.0229887
170.2,3.74505,6.34428,-0.02393
172.1,3.80377,6.38576,-0.0239303
174,3.86172,6.43903,-0.0226261
175.9,3.92136,6.48787,-0.0227168
177.8,3.97995,6.52471,-0.0249224
179.7,4.03872,6.5782,-0.02492
181.6,4.0973,6.62605,-0.02492
183.5,4.15589,6.67927,-0.02492
185.4,4.21429,6.73202,-0.0249334
187.3,4.27223,6.7823,-0.0245234
189.2,4.33048,6.8296,-0.025247
191.1,4.38857,6.88898,-0.0247326
193,4.44664,6.94111,-0.0249203
194.9,4.50426,6.99399,-0.0262163
196.8,4.56227,7.06375,-0.02624
198.7,4.62011,7.14375,-0.02624
200.6,4.67822,7.2459,-0.0262377
202.5,4.73642,7.37768,-0.0262181
204.4,4.79432,7.54746,-0.0262408
206.3,4.85279,7.76238,-0.0288705
208.2,4.911,8.06751,-0.02888
210.1,4.96976,8.53976,-0.02888
212,5.03057,9.22953,-0.028895
213.9,5.09136,10.1377,-0.0301927
215.8,5.15274,11.2402,-0.031204
217.7,5.21547,12.5229,-0.03118
219.6,5.2776,13.7648,-0.0311785
221.5,5.33809,14.529,-0.0301647
223.4,5.39196,13.4979,-0.03019
225.3,5.44398,11.747,-0.03019
227.2,5.49658,10.4481,-0.03019
229.1,5.55042,9.50746,-0.0301897
231,5.60563,8.83194,-0.0309057
232.9,5.66079,8.36138,-0.0315102
234.8,5.7166,8.02885,-0.0315102
236.7,5.77288,7.81261,-0.0312795
238.6,5.82908,7.67174,-0.0321702
240.5,5.88566,7.5672,-0.03217
242.4,5.94227,7.49849,-0.0321699
244.3,5.99933,7.46545,-0.0318578
246.2,6.05646,7.44082,-0.0315101
248.1,6.11304,7.41812,-0.0317023
250,6.16969,7.4155,-0.0328187
251.9,6.22664,7.4092,-0.0314966
253.8,6.28398,7.4078,-0.0315
255.7,6.34143,7.41409,-0.0315
257.6,6.39819,7.42304,-0.031474
259.5,6.45527,7.42499,-0.0334812
261.4,6.51242,7.43727,-0.03347831
263.3,6.56978,7.43253,-0.0322037
265.2,6.62653,7.44515,-0.0308409
267.1,6.68392,7.44375,-0.0317344
269,6.74113,7.45172,-0.03216
270.9,6.79852,7.45408,-0.0321566
272.8,6.85558,7.4595,-0.0334794
274.7,6.91263,7.47483,-0.03348
276.6,6.96996,7.47396,-0.0334804
278.5,7.02696,7.47257,-0.0321916
280.4,7.08386,7.476,-0.03217
282.3,7.14163,7.48237,-0.032559
284.2,7.19932,7.47717,-0.0322997
286.1,7.25656,7.49689,-0.0321669
288,7.31401,7.49151,-0.034782
289.9,7.37159,7.49788,-0.0348
291.8,7.42893,7.50697,-0.0348002
293.7,7.48682,7.51283,-0.03547385
295.6,7.5439,7.52207,-0.0351301
297.5,7.60131,7.51809,-0.03513
299.4,7.65886,7.52414,-0.0351556
301.3,7.71645,7.53104,-0.0347978
303.2,7.77416,7.52647,-0.034141
305.1,7.83173,7.53437,-0.03414
307,7.88925,7.53949,-0.0341247
308.9,7.94692,7.53447,-0.0328171
310.8,8.00459,7.53571,-0.03421726
312.7,8.06193,7.52588,-0.03513
314.6,8.11988,7.53353,-0.0361782
316.5,8.17731,7.53094,-0.0350803
318.4,8.23517,7.52525,-0.03512997
320.3,8.29326,7.52789,-0.0350945
322.2,8.35087,7.52803,-0.0354529
324.1,8.40861,7.51865,-0.0351294
326,8.46652,7.50666,-0.03513
327.9,8.52451,7.51243,-0.0364216
329.8,8.58248,7.50688,-0.0364499
331.7,8.64019,7.5057,-0.03645
333.6,8.69787,7.48943,-0.0359335
335.5,8.75614,7.49278,-0.0364536
337.4,8.8142,7.4845,-0.03645
339.3,8.87225,7.47724,-0.03645
341.2,8.93058,7.47319,-0.0363976
343.1,8.98889,7.46523,-0.0377663
345,9.0466,7.45048,-0.0390703
346.9,9.10517,7.44522,-0.03942849
348.8,9.16301,7.438,-0.0404002
350.7,9.22154,7.43025,-0.0403995
352.6,9.28016,7.42565,-0.0416532
354.5,9.33837,7.42154,-0.0417203
356.4,9.3971,7.41544,-0.0415729
358.3,9.45573,7.39771,-0.04335
360.2,9.51407,7.40885,-0.0433366
362.1,9.57274,7.39831,-0.0447
364,9.63146,7.39301,-0.0460023
365.9,9.6899,7.38983,-0.0473241
367.8,9.74822,7.38464,-0.0485044
369.7,9.80734,7.38426,-0.0500399
371.6,9.8661,7.38163,-0.0499485
373.5,9.92423,7.37985,-0.0512717
375.4,9.98314,7.39295,-0.0525913
377.3,10.0427,7.39929,-0.0546787
379.2,10.1014,7.41524,-0.0564028
381.1,10.1603,7.43485,-0.05918388
383,10.2198,7.4518,-0.0606443
384.9,10.279,7.47037,-0.0629819
386.8,10.3378,7.49739,-0.0656351
388.7,10.397,7.51618,-0.0679543
390.6,10.456,7.5409,-0.0710176
392.5,10.5153,7.572,-0.0746641
394.4,10.5748,7.60837,-0.07858188
396.3,10.6345,7.64902,-0.0843403
398.2,10.6937,7.69674,-0.0897817
400.1,10.7532,7.74371,-0.0940784
402,10.8128,7.7925,-0.0991379
403.9,10.8725,7.85608,-0.105432
405.8,10.932,7.91226,-0.111591
407.7,10.9918,7.99422,-0.116938
409.6,11.0515,8.07268,-0.124563
411.5,11.1115,8.1526,-0.133222
413.4,11.1716,8.24427,-0.141367
415.3,11.2317,8.33684,-0.151437
417.2,11.2915,8.44027,-0.16217
419.1,11.3519,8.54251,-0.172799
421,11.4119,8.65338,-0.186031
422.9,11.4723,8.77601,-0.197385
424.8,11.5326,8.92255,-0.212285
426.7,11.593,9.07005,-0.225964
428.6,11.6536,9.18622,-0.242644
430.5,11.7145,9.37476,-0.260858
432.4,11.7749,9.565055,-0.27905
434.3,11.836,9.78096,-0.297144
436.2,11.897,10.0014,-0.319121
438.1,11.9584,10.2021,-0.344011
440,12.0192,10.3907,-0.367794
441.9,12.081,10.8423,-0.39645
443.8,12.1423,11.1001,-0.431657
445.7,12.2036,11.406,-0.467069
447.6,12.2658,11.7579,-0.504179
449.5,12.3275,12.129,-0.545176
451.4,12.3898,12.5552,-0.587881
453.3,12.4518,13.0168,-0.63826
455.2,12.5148,13.5017,-0.691571
457.1,12.5772,14.0155,-0.749204
459,12.6396,14.5225,-0.813097
460.9,12.70287,15.0606,-0.882358
462.8,12.7659,15.75,-0.960896
464.7,12.8292,16.3562,-1.03945
466.6,12.8922,16.9115,-1.13074
468.5,12.9555,17.5209,-1.22531
470.4,13.019,18.0989,-1.32907
472.3,13.0826,18.7292,-1.44321
474.2,13.1461,19.3586,-1.56138
476.1,13.2092,19.8858,-1.69441
478,13.272,20.2373,-1.82548
479.9,13.334,20.36,-1.9663
481.8,13.3954,20.2262,-2.1062
483.7,13.4552,19.6952,-2.24488
485.6,13.5139,18.8655,-2.37805
487.5,13.5716,17.7496,-2.50805
489.4,13.6284,16.4029,-2.62552
491.3,13.6845,14.8875,-2.74032
493.2,13.74,13.2546,-2.83708
495.1,13.795,11.5848,-2.92818
497,13.8501,9.91665,-3.00958
498.9,13.9052,8.29113,-3.07525
500.8,13.9605,6.7976,-3.13531
502.7,14.0167,5.46842,-3.18222
504.6,14.0733,4.38267,-3.22039
506.5,14.1307,3.52373,-3.25181
508.4,14.1887,2.86718,-3.27608
510.3,14.2479,2.3818,-3.29554
512.2,14.3072,2.01668,-3.30957
514.1,14.367,1.74427,-3.32091
516,14.4271,1.54405,-3.32681
517.9,14.4874,1.40399,-3.33211
519.8,14.5483,1.29518,-3.33622
521.7,14.6097,1.23431,-3.33919
523.6,14.6704,1.1913,-3.33925
525.5,14.7321,1.16867,-3.34049
527.4,14.7935,1.14902,-3.34049
529.3,14.8551,1.13475,-3.34049
531.2,14.9168,1.12846,-3.34049
533.1,14.9783,1.12334,-3.34181
535,15.0403,1.11415,-3.3418
536.9,15.1021,1.09703,-3.3418
538.8,15.164,1.1019,-3.34216
540.7,15.226,1.0952,-3.34246
542.6,15.2876,1.08196,-3.34246
544.5,15.3501,1.07614,-3.34246
546.4,15.4121,1.06344,-3.34246
548.3,15.4742,1.0596,-3.3411
550.2,15.5366,1.05014,-3.34114
552.1,15.5986,1.03568,-3.34305
554,15.6607,1.02985,-3.34313
555.9,15.7232,1.0126,-3.3418
557.8,15.7852,1.00251,-3.3418
559.7,15.8474,1.00502,-3.34287
561.6,15.9096,1.00313,-3.34312
563.5,15.9722,0.99614,-3.34179
565.4,16.0346,0.987704,-3.3418
567.3,16.0968,0.988977,-3.3418
569.2,16.1594,0.992883,-3.34243
571.1,16.222,0.999769,-3.34246
573,16.2844,1.00486,-3.34246
574.9,16.3473,0.999427,-3.34114
576.8,16.4098,0.99714,-3.34114
578.7,16.4724,0.995576,-3.34249
580.6,16.5355,1.00367,-3.34246
582.5,16.5981,1.0097,-3.34246
584.4,16.6609,1.00428,-3.34181
586.3,16.7236,0.999273,-3.3418
588.2,16.7865,0.987537,-3.3418
590.1,16.8496,0.99344,-3.34175
592,16.9125,0.982881,-3.34318
593.9,16.9756,0.985306,-3.34164
595.8,17.0386,0.98524,-3.34048
597.7,17.102,0.970421,-3.3405
599.6,17.1651,0.964143,-3.34247
600,17.1782,0.958974,-3.34317