Folder: fsri_materials_database/01_Data/Engineered_Wood_Furniture/Cone

File: Engineered_Wood_Furniture_Cone_HF25Scalar_220330_R1.csv
LABORATORY,FSRI
TEST IDENT,EngWoodFurn_HF25_1
OPERATOR,Dow
MATERIAL,Engineered Wood Furniture - Wood Veneer on MDF
ORIENTATION,Horizontal
HEAT FLUX,25
SURF AREA,0.01
C FACTOR,0.0395835
SPEC HOLDER DIFF,-566
SPECIMEN MASS,112.26
SCAN TIME,0.25
O2 DELAY TIME,11
CO DELAY TIME,11
CO2 DELAY TIME,8
FLOW FACTOR,1
SCAN COUNT,5550
TIME TO IGN,118.25
END OF TEST SCAN,5070
END OF TEST TIME,1267.5
TEST STATUS,1
PRE TEST CMT,Dimensions: 101.63 x 99.92 x 13.76 mm
POST TEST CMT,"A bubble formed between the veneer and the MDF after ignition, which deflated shortly thereafter and released a brief horizontal flame jet from the edge of the sample."

File: Engineered_Wood_Furniture_Cone_HF25Scalar_220330_R3.csv
LABORATORY,FSRI
TEST IDENT,EngWoodFurn_HF25_3
OPERATOR,Dow
MATERIAL,Engineered Wood Furniture - Wood Veneer on MDF
ORIENTATION,Horizontal
HEAT FLUX,25
SURF AREA,0.01
C FACTOR,0.0395835
SPEC HOLDER DIFF,-566
SPECIMEN MASS,112.26
SCAN TIME,0.25
O2 DELAY TIME,11
CO DELAY TIME,11
CO2 DELAY TIME,8
FLOW FACTOR,1
SCAN COUNT,5362
TIME TO IGN,116.25
END OF TEST SCAN,4882
END OF TEST TIME,1220.5
TEST STATUS,1
PRE TEST CMT,Dimensions: 99.98 x 101.01 x 13.72 mm
POST TEST CMT,"The sample formed cracks while burning and warped into an arched shape during the fire decay phase. Warping was less pronounced than shown in the representative test picture."

File: Engineered_Wood_Furniture_Cone_HF50Scalar_220330_R1.csv
LABORATORY,FSRI
TEST IDENT,EngWoodFurn_HF50_1
OPERATOR,Dow
MATERIAL,Engineered Wood Furniture - Wood Veneer on MDF
ORIENTATION,Horizontal
HEAT FLUX,50
SURF AREA,0.01
C FACTOR,0.0402475
SPEC HOLDER DIFF,-566
SPECIMEN MASS,112.19
SCAN TIME,0.25
O2 DELAY TIME,11
CO DELAY TIME,11
CO2 DELAY TIME,8
FLOW FACTOR,1
SCAN COUNT,5365
TIME TO IGN,22.75
END OF TEST SCAN,4885
END OF TEST TIME,1221.25
TEST STATUS,1
PRE TEST CMT,Dimensions: 101.49 x 100.39 x 13.77 mm
POST TEST CMT,"The sample formed cracks while burning and warped into an arched shape during the fire decay phase. Warping was less pronounced than shown in the representative test picture."

File: Engineered_Wood_Furniture_Cone_HF50Scalar_220330_R2.csv
LABORATORY,FSRI
TEST IDENT,EngWoodFurn_HF50_2
OPERATOR,Dow
MATERIAL,Engineered Wood Furniture - Wood Veneer on MDF
ORIENTATION,Horizontal
HEAT FLUX,50
SURF AREA,0.01
C FACTOR,0.0402475
SPEC HOLDER DIFF,-566
SPECIMEN MASS,111.7
SCAN TIME,0.25
O2 DELAY TIME,11
CO DELAY TIME,11
CO2 DELAY TIME,8
FLOW FACTOR,1
SCAN COUNT,5246
TIME TO IGN,28.75
END OF TEST SCAN,4766
END OF TEST TIME,1191.5
TEST STATUS,1
PRE TEST CMT,Dimensions: 100.98 x 100.04 x 13.74 mm
POST TEST CMT,"The sample formed cracks while burning and warped into an arched shape during the fire decay phase. Warping was less pronounced than shown in the representative test picture."

File: Engineered_Wood_Furniture_Cone_HF50Scalar_220330_R3.csv
LABORATORY,FSRI
TEST IDENT,EngWoodFurn_HF50_3
OPERATOR,Dow
MATERIAL,Engineered Wood Furniture - Wood Veneer on MDF
ORIENTATION,Horizontal
HEAT FLUX,50
SURF AREA,0.01
C FACTOR,0.0402475
SPEC HOLDER DIFF,-566
SPECIMEN MASS,112.03
SCAN TIME,0.25
O2 DELAY TIME,11
CO DELAY TIME,11
CO2 DELAY TIME,8
FLOW FACTOR,1
SCAN COUNT,5323
TIME TO IGN,16.75
END OF TEST SCAN,4843
END OF TEST TIME,1210.75
TEST STATUS,1
PRE TEST CMT,Dimensions: 101.39 x 101.30 x 13.81 mm
POST TEST CMT,"The sample formed cracks while burning and warped into an arched shape during the fire decay phase. See representative test picture."

File: Engineered_Wood_Furniture_Cone_HF75Scalar_220330_R1.csv
LABORATORY,FSRI
TEST IDENT,EngWoodFurn_HF75_1
OPERATOR,Dow
MATERIAL,Engineered Wood Furniture - Wood Veneer on MDF
ORIENTATION,Horizontal
HEAT FLUX,75
SURF AREA,0.01
C FACTOR,0.0402475
SPEC HOLDER DIFF,-566
SPECIMEN MASS,109.24
SCAN TIME,0.25
O2 DELAY TIME,11
CO DELAY TIME,11
CO2 DELAY TIME,8
FLOW FACTOR,1
SCAN COUNT,4306
TIME TO IGN,10.25
END OF TEST SCAN,3826
END OF TEST TIME,956.5
TEST STATUS,1
PRE TEST CMT,Dimensions: 100.32 x 101.03 x 13.69 mm
POST TEST CMT,The sample formed cracks while burning and warped into an arched shape during the fire decay phase. See representative test picture.

File: Engineered_Wood_Furniture_Cone_HF75Scalar_220330_R2.csv
LABORATORY,FSRI
TEST IDENT,EngWoodFurn_HF75_2
OPERATOR,Dow
MATERIAL,Engineered Wood Furniture - Wood Veneer on MDF
ORIENTATION,Horizontal
HEAT FLUX,75
SURF AREA,0.01
C FACTOR,0.0402475
SPEC HOLDER DIFF,-566
SPECIMEN MASS,112.84
SCAN TIME,0.25
O2 DELAY TIME,11
CO DELAY TIME,11
CO2 DELAY TIME,8
FLOW FACTOR,1
SCAN COUNT,3486
TIME TO IGN,11.75
END OF TEST SCAN,3006
END OF TEST TIME,751.5
TEST STATUS,1
PRE TEST CMT,Dimensions: 101.02 x 100.56 x 13.76 mm
POST TEST CMT,The sample formed cracks while burning and warped into an arched shape during the fire decay phase. See representative test picture.

File: Engineered_Wood_Furniture_Cone_HF75Scalar_220330_R3.csv
LABORATORY,FSRI
TEST IDENT,EngWoodFurn_HF75_3
OPERATOR,Dow
MATERIAL,Engineered Wood Furniture - Wood Veneer on MDF
ORIENTATION,Horizontal
HEAT FLUX,75
SURF AREA,0.01
C FACTOR,0.0402475
SPEC HOLDER DIFF,-566
SPECIMEN MASS,112.12
SCAN TIME,0.25
O2 DELAY TIME,11
CO DELAY TIME,11
CO2 DELAY TIME,8
FLOW FACTOR,1
SCAN COUNT,4042
TIME TO IGN,7
END OF TEST SCAN,3562
END OF TEST TIME,890.5
TEST STATUS,1
PRE TEST CMT,Dimensions: 101.28 x 100.80 x 13.71 mm
POST TEST CMT,The sample formed cracks while burning and warped into an arched shape during the fire decay phase. See representative test picture.