Folder: fsri_materials_database/01_Data/Leather_Helmet_Shell/STA/N2/10K_min

File: Leather_Helmet_Shell_STA_N2_10KData_250522_R1.csv
Temp./C,Time/min,DSC/(mW/mg),Mass loss/mg
40.0,0.0,1.09466,-0.0933822
42.6,0.347584,1.2388,-0.0976516
45.2,0.68101,1.38296,-0.100261
47.8,0.99903,1.51307,-0.10295
50.4,1.31205,1.65293,-0.108051
53,1.61307,1.78278,-0.113299
55.6,1.90755,1.9254,-0.114737
58.2,2.1969,2.04404,-0.124936
60.8,2.47903,2.15683,-0.12791
63.4,2.75685,2.24422,-0.137163
66,3.03208,2.33349,-0.141189
68.6,3.30089,2.39835,-0.14986
71.2,3.57013,2.43626,-0.155232
73.8,3.8352,2.47084,-0.16051
76.4,4.09884,2.48499,-0.166097
79,4.36193,2.47476,-0.174244
81.6,4.62107,2.44583,-0.179519
84.2,4.87864,2.40469,-0.18609
86.8,5.13642,2.35304,-0.190476
89.4,5.39111,2.29688,-0.195316
92,5.64465,2.22815,-0.199213
94.6,5.89642,2.1552,-0.204885
97.2,6.14694,2.07879,-0.208108
99.8,6.39607,2.01021,-0.21189
102.4,6.64567,1.9286,-0.212558
105,6.89397,1.85673,-0.214528
107.6,7.14295,1.79482,-0.21782
110.2,7.39139,1.7392,-0.22045
112.8,7.63988,1.68881,-0.22275
115.4,7.88427,1.63828,-0.222761
118,8.13614,1.60265,-0.222294
120.6,8.38497,1.56562,-0.226576
123.2,8.63255,1.53907,-0.223736
125.8,8.88017,1.52812,-0.227041
128.4,9.12746,1.50997,-0.22967
131,9.3739,1.49768,-0.228519
133.6,9.62221,1.49716,-0.22835
136.2,9.86704,1.48492,-0.230984
138.8,10.1135,1.49524,-0.23098
141.4,10.3584,1.48604,-0.232596
144,10.6045,1.49612,-0.236039
146.6,10.8508,1.51737,-0.235444
149.2,11.0961,1.53779,-0.2373
151.8,11.3414,1.57663,-0.23867
154.4,11.5873,1.63356,-0.23834
157,11.8316,1.67304,-0.24098
159.6,12.0762,1.70741,-0.2423
162.2,12.3217,1.73226,-0.243952
164.8,12.5678,1.76384,-0.24625
167.4,12.8114,1.78169,-0.24724
170,13.0567,1.7945,-0.247411
172.6,13.3016,1.81841,-0.251518
175.2,13.5476,1.83746,-0.254134
177.8,13.7921,1.85501,-0.256777
180.4,14.0359,1.87751,-0.257103
183,14.2812,1.90312,-0.25975
185.6,14.5255,1.91757,-0.264405
188.2,14.77,1.94774,-0.267851
190.8,15.0143,1.96507,-0.271598
193.4,15.2584,1.98134,-0.275988
196,15.5025,2.00964,-0.280488
198.6,15.7475,2.03681,-0.284784
201.2,15.9926,2.05912,-0.288026
203.8,16.2375,2.0934,-0.291274
206.4,16.482,2.12006,-0.299235
209,16.7258,2.1482,-0.303124
211.6,16.9707,2.17882,-0.310307
214.2,17.2164,2.21293,-0.315011
216.8,17.4608,2.24819,-0.32401
219.4,17.7064,2.27839,-0.331112
222,17.9515,2.32164,-0.339323
224.6,18.1963,2.36676,-0.348895
227.2,18.4413,2.40913,-0.356941
229.8,18.6863,2.46704,-0.36789
232.4,18.9333,2.517,-0.379642
235,19.1792,2.59092,-0.390943
237.6,19.4246,2.68507,-0.403933
240.2,19.6713,2.77594,-0.418041
242.8,19.9172,2.8327,-0.43419
245.4,20.1634,2.8647,-0.449858
248,20.4094,2.8804,-0.469663
250.6,20.6543,2.90073,-0.48961
253.2,20.9006,2.92933,-0.510185
255.8,21.1459,2.97402,-0.532558
258.4,21.3938,3.01891,-0.556447
261,21.6399,3.07867,-0.582707
263.6,21.8867,3.15531,-0.610413
266.2,22.1335,3.23737,-0.642391
268.8,22.3808,3.31596,-0.673442
271.4,22.6275,3.39048,-0.699313
274,22.8752,3.45307,-0.744542
276.6,23.1216,3.50937,-0.777224
279.2,23.3695,3.55511,-0.813761
281.8,23.6152,3.57316,-0.851582
284.4,23.8613,3.56576,-0.888382
287,24.1096,3.55585,-0.923224
289.6,24.3562,3.51353,-0.958332
292.2,24.6034,3.46691,-0.994127
294.8,24.8491,3.41103,-1.02901
297.4,25.0958,3.34481,-1.06031
300,25.3414,3.29044,-1.09312
302.6,25.5895,3.23628,-1.12775
305.2,25.8349,3.1913,-1.16065
307.8,26.0823,3.14207,-1.19262
310.4,26.3292,3.10161,-1.22543
313,26.5774,3.05942,-1.26111
315.6,26.825,3.00983,-1.2955
318.2,27.0724,2.96008,-1.32887
320.8,27.3199,2.91061,-1.36529
323.4,27.5681,2.84488,-1.39908
326,27.8131,2.77697,-1.43314
328.6,28.0642,2.71367,-1.46897
331.2,28.3113,2.64804,-1.5011
333.8,28.5593,2.5923,-1.53183
336.4,28.8073,2.52812,-1.56217
339,29.0565,2.46494,-1.58981
341.6,29.3044,2.39936,-1.61916
344.2,29.553,2.346,-1.6446
346.8,29.8026,2.30039,-1.67176
349.4,30.0512,2.25357,-1.69741
352,30.3018,2.20949,-1.72205
354.6,30.5518,2.17417,-1.7423
357.2,30.8016,2.12897,-1.76421
359.8,31.0513,2.1024,-1.78503
362.4,31.3014,2.07536,-1.80552
365,31.5523,2.05076,-1.8253
367.6,31.804,2.02021,-1.84698
370.2,32.0548,2.00435,-1.86598
372.8,32.3059,1.97986,-1.88508
375.4,32.5577,1.96868,-1.90412
378,32.8088,1.95705,-1.92218
380.6,33.0599,1.93966,-1.9428
383.2,33.3119,1.91924,-1.96249
385.8,33.5627,1.90282,-1.98025
388.4,33.8142,1.89479,-2.00088
391,34.0661,1.87693,-2.01948
393.6,34.3176,1.86168,-2.04003
396.2,34.569,1.83554,-2.05909
398.8,34.8198,1.822,-2.07794
401.4,35.0748,1.80634,-2.10012
404,35.3277,1.7882,-2.12019
406.6,35.5805,1.76732,-2.1388
409.2,35.833,1.75113,-2.15888
411.8,36.0869,1.7222,-2.17778
414.4,36.3397,1.70901,-2.19594
417,36.592,1.69499,-2.21429
419.6,36.8462,1.67702,-2.23324
422.2,37.101,1.65277,-2.25048
424.8,37.3534,1.62685,-2.27125
427.4,37.6063,1.6103,-2.2869
430,37.8604,1.59329,-2.30497
432.6,38.1142,1.5735,-2.32062
435.2,38.3674,1.55776,-2.33666
437.8,38.6207,1.54023,-2.35092
440.4,38.8756,1.53439,-2.36609
443,39.1279,1.5197,-2.38164
445.6,39.3829,1.51584,-2.39516
448.2,39.6373,1.49778,-2.40828
450.8,39.892,1.48907,-2.42234
453.4,40.1457,1.48672,-2.43752
456,40.4026,1.47708,-2.44733
458.6,40.6568,1.46521,-2.46003
461.2,40.9125,1.45298,-2.47325
463.8,41.1675,1.44612,-2.48405
466.4,41.4222,1.42661,-2.49383
469,41.6773,1.42349,-2.50424
471.6,41.9328,1.39504,-2.51278
474.2,42.1887,1.38904,-2.52292
476.8,42.4445,1.37825,-2.53105
479.4,42.6988,1.35565,-2.5395
482,42.9571,1.34451,-2.54755
484.6,43.214,1.31868,-2.55263
487.2,43.4695,1.30881,-2.55993
489.8,43.725,1.30299,-2.56509
492.4,43.9828,1.28131,-2.57087
495,44.2394,1.26838,-2.57672
497.6,44.496,1.25874,-2.58199
500.2,44.7521,1.24296,-2.58484
502.8,45.009,1.23912,-2.59055
505.4,45.2658,1.22625,-2.59407
508,45.5214,1.21607,-2.59938
510.6,45.7795,1.20029,-2.60328
513.2,46.0341,1.2004,-2.60734
515.8,46.2927,1.188,-2.60997
518.4,46.55,1.1799,-2.61303
521,46.8075,1.17687,-2.61656
523.6,47.0639,1.16988,-2.61921
526.2,47.3226,1.15219,-2.62322
528.8,47.5803,1.14714,-2.62589
531.4,47.8368,1.14226,-2.62989
534,48.0959,1.13349,-2.63163
536.6,48.3557,1.13188,-2.63578
539.2,48.6141,1.11435,-2.63784
541.8,48.8725,1.1153,-2.64105
544.4,49.1306,1.11416,-2.64467
547,49.3895,1.11603,-2.64669
549.6,49.6481,1.10224,-2.64994
552.2,49.9071,1.10517,-2.65016
554.8,50.1654,1.10318,-2.65518
557.4,50.4245,1.10261,-2.65817
560,50.6833,1.09973,-2.66212
562.6,50.9408,1.10369,-2.66505
565.2,51.2011,1.10746,-2.66728
567.8,51.4609,1.10244,-2.66992
570.4,51.7199,1.10158,-2.67288
573,51.9798,1.1065,-2.67583
575.6,52.2392,1.09713,-2.67915
578.2,52.4985,1.09729,-2.68112
580.8,52.7577,1.09302,-2.68243
583.4,53.0146,1.08351,-2.68649
586,53.2739,1.08354,-2.68902
588.6,53.5347,1.08239,-2.69168
591.2,53.7935,1.07728,-2.69539
593.8,54.0533,1.07,-2.69671
596.4,54.3122,1.05805,-2.69922
599,54.5704,1.05554,-2.70165
601.6,54.8271,1.05139,-2.70428
604.2,55.0887,1.04038,-2.70796
606.8,55.3481,1.03601,-2.70725
609.4,55.6078,1.03472,-2.71056
612,55.8683,1.03074,-2.71186
614.6,56.1282,1.03211,-2.71581
617.2,56.388,1.02669,-2.71713
619.8,56.6481,1.03564,-2.71848
622.4,56.9091,1.0295,-2.72108
625,57.1697,1.02055,-2.7224
627.6,57.4293,1.015,-2.72503
630.2,57.69,1.01484,-2.72734
632.8,57.9497,0.997246,-2.72931
635.4,58.2099,1.00351,-2.7326
638,58.471,0.997606,-2.73261
640.6,58.7318,0.997088,-2.73536
643.2,58.9918,0.989848,-2.73645
645.8,59.2528,0.987917,-2.73931
648.4,59.5137,0.980244,-2.74323
651,59.774,0.97993,-2.7436
653.6,60.0348,0.973061,-2.74456
656.2,60.2963,0.96536,-2.74832
658.8,60.5577,0.96799,-2.74876
661.4,60.8196,0.959719,-2.75248
664,61.08,0.954112,-2.7538
666.6,61.3403,0.940598,-2.7542
669.2,61.6031,0.949521,-2.7561
671.8,61.865,0.944031,-2.75864
674.4,62.1262,0.925744,-2.7617
677,62.3878,0.932707,-2.76574
679.6,62.6499,0.933032,-2.7657
682.2,62.9118,0.916501,-2.76815
684.8,63.1732,0.896239,-2.76963
687.4,63.4346,0.889855,-2.77234
690,63.696,0.879903,-2.7741
692.6,63.9583,0.881829,-2.77542
695.2,64.2206,0.879775,-2.77674
697.8,64.4826,0.871908,-2.77937
700.4,64.7445,0.875058,-2.78069
703,65.0071,0.869776,-2.782
705.6,65.269,0.864255,-2.78596
708.2,65.5308,0.847644,-2.78596
710.8,65.7915,0.830102,-2.78857
713.4,66.056,0.816675,-2.79045
716,66.3198,0.806704,-2.79299
718.6,66.5822,0.786204,-2.79251
721.2,66.8453,0.786746,-2.7965
723.8,67.1073,0.78445,-2.79912
726.4,67.3702,0.778612,-2.79979
729,67.6318,0.774168,-2.8033
731.6,67.8955,0.76505,-2.80499
734.2,68.156,0.762409,-2.80604
736.8,68.4201,0.763712,-2.80989
739.4,68.6825,0.749927,-2.81121
742,68.9446,0.74931,-2.81429
744.6,69.207,0.74271,-2.8168
747.2,69.4687,0.741593,-2.81824
749.8,69.7314,0.742448,-2.81953
752.4,69.9938,0.743956,-2.82266
755,70.2579,0.732829,-2.82482
757.6,70.5213,0.72988,-2.82766
760.2,70.7848,0.723528,-2.82757
762.8,71.048,0.724551,-2.83021
765.4,71.311,0.724332,-2.83152
768,71.5743,0.729576,-2.83416
770.6,71.8394,0.731715,-2.83679
773.2,72.1021,0.731805,-2.83745
775.8,72.3666,0.737377,-2.84008
778.4,72.6318,0.730342,-2.84271
781,72.8935,0.744765,-2.84568
783.6,73.1591,0.736233,-2.847
786.2,73.4246,0.718571,-2.84832
788.8,73.6883,0.706293,-2.84964
790,73.8096,0.709973,-2.85096