Folder: fsri_materials_database/01_Data/Leather_Helmet_Shell/STA/N2/30K_min

File: Leather_Helmet_Shell_STA_N2_30KData_250523_R1.csv
Temp./C,Time/min,DSC/(mW/mg),Mass loss/mg
40.0,0.0,1.53597,-0.103019
42.6,0.160462,1.81274,-0.107629
45.2,0.305525,2.09032,-0.103923
47.8,0.439094,2.34465,-0.11086
50.4,0.56608,2.60918,-0.112551
53,0.689109,2.87324,-0.11721
55.6,0.806521,3.141,-0.119248
58.2,0.920792,3.39606,-0.123783
60.8,1.0322,3.67715,-0.132286
63.4,1.14101,3.94252,-0.127367
66,1.2474,4.19861,-0.133159
68.6,1.35214,4.45397,-0.13635
71.2,1.45587,4.70679,-0.139244
73.8,1.55792,4.95205,-0.14449
76.4,1.65908,5.16265,-0.150939
79,1.75951,5.34622,-0.157858
81.6,1.85741,5.50541,-0.163565
84.2,1.95468,5.65239,-0.169076
86.8,2.05075,5.74575,-0.174837
89.4,2.14551,5.81442,-0.180735
92,2.23854,5.84055,-0.188671
94.6,2.33111,5.8302,-0.194096
97.2,2.4221,5.79705,-0.198019
99.8,2.51274,5.72382,-0.200643
102.4,2.60219,5.62835,-0.206565
105,2.69165,5.4956,-0.211457
107.6,2.78006,5.35311,-0.217784
110.2,2.86751,5.20216,-0.218974
112.8,2.95512,5.03566,-0.224555
115.4,3.04136,4.86763,-0.22945
118,3.1291,4.69069,-0.230759
120.6,3.21465,4.50531,-0.235009
123.2,3.30036,4.33653,-0.234037
125.8,3.38541,4.16133,-0.232673
128.4,3.47026,4.00409,-0.23362
131,3.5542,3.85827,-0.237739
133.6,3.63764,3.73717,-0.241409
136.2,3.72098,3.60499,-0.24283
138.8,3.80409,3.50329,-0.243166
141.4,3.88634,3.40252,-0.245138
144,3.96861,3.33927,-0.244089
146.6,4.05081,3.29161,-0.245143
149.2,4.13215,3.24441,-0.2458
151.8,4.2129,3.21281,-0.2458
154.4,4.29483,3.17649,-0.24655
157,4.37561,3.1627,-0.249636
159.6,4.45618,3.14858,-0.253064
162.2,4.53731,3.18699,-0.256821
164.8,4.61772,3.24609,-0.256423
167.4,4.69857,3.33578,-0.258327
170,4.77884,3.42193,-0.258393
172.6,4.85885,3.50694,-0.259465
175.2,4.93897,3.57426,-0.260179
177.8,5.018,3.62692,-0.263092
180.4,5.0977,3.69574,-0.265394
183,5.17725,3.74944,-0.267859
185.6,5.2562,3.79059,-0.270185
188.2,5.33478,3.82621,-0.277747
190.8,5.41335,3.8647,-0.273911
193.4,5.49125,3.90057,-0.27258
196,5.56959,3.94801,-0.275655
198.6,5.64747,3.98244,-0.280483
201.2,5.72599,4.03913,-0.28379
203.8,5.80383,4.07841,-0.285159
206.4,5.88153,4.11701,-0.292291
209,5.95938,4.16789,-0.293409
211.6,6.03706,4.20943,-0.295985
214.2,6.11494,4.25173,-0.3077
216.8,6.19248,4.30032,-0.304682
219.4,6.2699,4.35912,-0.311414
222,6.34756,4.43079,-0.318263
224.6,6.42497,4.50165,-0.317185
227.2,6.50238,4.57503,-0.320109
229.8,6.58005,4.66073,-0.326711
232.4,6.65722,4.76978,-0.33486
235,6.73467,4.89117,-0.34168
237.6,6.81203,5.03542,-0.350025
240.2,6.88968,5.17135,-0.360463
242.8,6.96714,5.2968,-0.368522
245.4,7.04411,5.43192,-0.379355
248,7.12124,5.52835,-0.390866
250.6,7.19863,5.60431,-0.402794
253.2,7.27502,5.65934,-0.413916
255.8,7.3522,5.71029,-0.425926
258.4,7.42865,5.76402,-0.440095
261,7.5061,5.83706,-0.452379
263.6,7.58313,5.92016,-0.467003
266.2,7.66011,6.02231,-0.481931
268.8,7.73629,6.15112,-0.499886
271.4,7.81396,6.28204,-0.518561
274,7.89101,6.44358,-0.539028
276.6,7.96888,6.60856,-0.561691
279.2,8.046,6.7933,-0.586791
281.8,8.12294,6.97517,-0.612844
284.4,8.20035,7.13902,-0.642567
287,8.27749,7.30453,-0.673383
289.6,8.35489,7.43902,-0.707062
292.2,8.43217,7.56493,-0.739302
294.8,8.50913,7.64932,-0.776595
297.4,8.58637,7.68318,-0.811343
300,8.66297,7.68388,-0.846484
302.6,8.73946,7.6405,-0.881558
305.2,8.81636,7.56605,-0.916257
307.8,8.89256,7.46788,-0.950959
310.4,8.96925,7.34395,-0.98456
313,9.04557,7.21917,-1.02053
315.6,9.1218,7.0729,-1.05586
318.2,9.19882,6.9472,-1.088
320.8,9.27472,6.80239,-1.12277
323.4,9.35162,6.67218,-1.15529
326,9.42814,6.53333,-1.19327
328.6,9.50459,6.39735,-1.22534
331.2,9.58144,6.25631,-1.25803
333.8,9.65799,6.11449,-1.29153
336.4,9.73481,5.96581,-1.32747
339,9.81153,5.81754,-1.36219
341.6,9.88826,5.65247,-1.39499
344.2,9.96519,5.49221,-1.43106
346.8,10.0421,5.31087,-1.46787
349.4,10.1192,5.13368,-1.50379
352,10.1961,4.94515,-1.53925
354.6,10.2729,4.77713,-1.56927
357.2,10.3503,4.5924,-1.60064
359.8,10.4271,4.41794,-1.63367
362.4,10.5047,4.2558,-1.66442
365,10.5823,4.08493,-1.69536
367.6,10.6595,3.92903,-1.72469
370.2,10.7371,3.7599,-1.75347
372.8,10.815,3.61707,-1.7817
375.4,10.8928,3.47367,-1.80703
378,10.9709,3.35491,-1.83169
380.6,11.0486,3.23382,-1.85646
383.2,11.1266,3.12939,-1.87743
385.8,11.205,3.03836,-1.89917
388.4,11.2837,2.94167,-1.92163
391,11.3619,2.87176,-1.94388
393.6,11.4404,2.78745,-1.96518
396.2,11.5191,2.72356,-1.98479
398.8,11.5986,2.65713,-2.00693
401.4,11.6771,2.60388,-2.01203
404,11.756,2.53164,-2.04504
406.6,11.8354,2.48208,-2.06418
409.2,11.9145,2.43491,-2.0815
411.8,11.9933,2.38567,-2.09883
414.4,12.0731,2.32709,-2.11897
417,12.1526,2.269,-2.13979
419.6,12.2322,2.22213,-2.156
422.2,12.3118,2.16412,-2.17305
424.8,12.3913,2.09928,-2.18799
427.4,12.4714,2.04026,-2.20638
430,12.5507,1.99194,-2.22347
432.6,12.631,1.93901,-2.24262
435.2,12.7109,1.87843,-2.25963
437.8,12.7912,1.83494,-2.27549
440.4,12.8712,1.78667,-2.2934
443,12.9517,1.7421,-2.30806
445.6,13.0317,1.69167,-2.32481
448.2,13.1125,1.65377,-2.34157
450.8,13.1929,1.61277,-2.35716
453.4,13.2737,1.57934,-2.37165
456,13.3541,1.54206,-2.38685
458.6,13.4349,1.51804,-2.40264
461.2,13.5156,1.48943,-2.40908
463.8,13.5961,1.46212,-2.42695
466.4,13.6773,1.43886,-2.4436
469,13.758,1.41193,-2.45519
471.6,13.8392,1.39464,-2.46673
474.2,13.9203,1.38392,-2.47542
476.8,14.0018,1.36156,-2.4877
479.4,14.0829,1.34014,-2.5005
482,14.1639,1.32214,-2.51143
484.6,14.2457,1.3091,-2.52232
487.2,14.3272,1.28557,-2.53354
489.8,14.4083,1.25492,-2.53424
492.4,14.4902,1.22575,-2.55588
495,14.5718,1.20084,-2.56142
497.6,14.6537,1.17124,-2.56926
500.2,14.7357,1.14412,-2.57489
502.8,14.8172,1.12173,-2.58499
505.4,14.8992,1.08873,-2.59375
508,14.9815,1.05991,-2.60015
510.6,15.0638,1.0371,-2.60665
513.2,15.1458,1.01485,-2.61167
515.8,15.228,0.999315,-2.61524
518.4,15.3103,0.976352,-2.61938
521,15.3928,0.96941,-2.62312
523.6,15.4747,0.965083,-2.62521
526.2,15.5574,0.960348,-2.62795
528.8,15.6402,0.945755,-2.63218
531.4,15.7231,0.939698,-2.63608
534,15.8059,0.940188,-2.63963
536.6,15.8889,0.945642,-2.65163
539.2,15.9717,0.948511,-2.64705
541.8,16.0549,0.954652,-2.65069
544.4,16.1376,0.953567,-2.65459
547,16.2212,0.956004,-2.65761
549.6,16.3039,0.962336,-2.66334
552.2,16.3874,0.964854,-2.66663
554.8,16.4706,0.970156,-2.66936
557.4,16.5541,0.97174,-2.67068
560,16.6377,0.968394,-2.67316
562.6,16.7209,0.978603,-2.67671
565.2,16.8044,0.973402,-2.67935
567.8,16.8881,0.976803,-2.68203
570.4,16.9715,0.990781,-2.68642
573,17.0556,0.985352,-2.69003
575.6,17.1391,1.00343,-2.6911
578.2,17.2228,1.01579,-2.6914
580.8,17.3066,1.02383,-2.69584
583.4,17.3897,1.03381,-2.69722
586,17.4744,1.05838,-2.7005
588.6,17.5581,1.07076,-2.70356
591.2,17.6419,1.07829,-2.70479
593.8,17.7262,1.09184,-2.70725
596.4,17.8099,1.11002,-2.70945
599,17.8939,1.11758,-2.71204
601.6,17.9781,1.1188,-2.71482
604.2,18.062,1.13921,-2.71888
606.8,18.1462,1.13976,-2.72184
609.4,18.2303,1.14948,-2.7246
612,18.3147,1.15469,-2.72599
614.6,18.3988,1.15788,-2.72903
617.2,18.4824,1.1638,-2.73052
619.8,18.5676,1.16573,-2.73346
622.4,18.6519,1.16293,-2.73612
625,18.7361,1.14801,-2.73889
627.6,18.8205,1.14384,-2.7415
630.2,18.9053,1.15425,-2.74464
632.8,18.9896,1.13744,-2.74687
635.4,19.074,1.1361,-2.74836
638,19.1589,1.1431,-2.7481
640.6,19.2437,1.13851,-2.75087
643.2,19.3286,1.12885,-2.75367
645.8,19.4132,1.13496,-2.75487
648.4,19.4978,1.13167,-2.75655
651,19.5831,1.13415,-2.75774
653.6,19.6679,1.13406,-2.75962
656.2,19.7529,1.14407,-2.76325
658.8,19.838,1.15239,-2.7645
661.4,19.9233,1.15453,-2.76723
664,20.0084,1.16031,-2.76732
666.6,20.0938,1.16506,-2.77001
669.2,20.1788,1.1656,-2.77271
671.8,20.264,1.16635,-2.77542
674.4,20.3495,1.16056,-2.77675
677,20.435,1.16462,-2.77798
679.6,20.5201,1.16227,-2.78071
682.2,20.6056,1.16842,-2.78296
684.8,20.6911,1.17753,-2.78628
687.4,20.7767,1.17895,-2.7863
690,20.8621,1.17277,-2.78907
692.6,20.9477,1.1809,-2.79035
695.2,21.0334,1.17167,-2.79072
697.8,21.1191,1.17803,-2.79084
700.4,21.2044,1.17468,-2.793
703,21.2904,1.1838,-2.79458
705.6,21.3759,1.16763,-2.79654
708.2,21.4616,1.17576,-2.7999
710.8,21.5476,1.18393,-2.79988
713.4,21.6335,1.20369,-2.80254
716,21.7189,1.21477,-2.80254
718.6,21.8051,1.22952,-2.80386
721.2,21.8914,1.24448,-2.80634
723.8,21.9775,1.24388,-2.80772
726.4,22.0631,1.25967,-2.81077
729,22.1493,1.27343,-2.81208
731.6,22.2358,1.2898,-2.8134
734.2,22.3219,1.31035,-2.81445
736.8,22.4082,1.32104,-2.81764
739.4,22.4942,1.32988,-2.82035
742,22.5805,1.33889,-2.82378
744.6,22.6669,1.34629,-2.82535
747.2,22.7533,1.35363,-2.82621
749.8,22.8393,1.35298,-2.82668
752.4,22.9257,1.33714,-2.82661
755,23.0122,1.28594,-2.82953
757.6,23.0985,1.24802,-2.82382
760.2,23.1847,1.2196,-2.83308
762.8,23.2709,1.20178,-2.83695
765.4,23.3576,1.19175,-2.83825
768,23.4438,1.16891,-2.83917
770.6,23.5306,1.15647,-2.84194
773.2,23.6169,1.12835,-2.84194
775.8,23.7033,1.12306,-2.84327
778.4,23.7895,1.10923,-2.84469
781,23.8759,1.11126,-2.84591
783.6,23.9623,1.09145,-2.84885
786.2,24.0487,1.09442,-2.8448
788.8,24.135,1.08456,-2.85255
790,24.1749,1.08229,-2.85628