Folder: fsri_materials_database/01_Data/Helmet_Strap/STA/N2/10K_min (part 2)

File: Helmet_Strap_STA_N2_10KData_250401_R3.csv
Temp./C,Time/min,DSC/(mW/mg),Mass loss/mg
60.0,0.0,0.564733,-0.0322272
62.7,0.348482,0.615197,-0.0327454
65.4,0.678291,0.663834,-0.0342055
68.1,0.996153,0.697709,-0.0349566
70.8,1.30714,0.729363,-0.0357388
73.5,1.60987,0.769821,-0.0380955
76.2,1.90803,0.799224,-0.0357918
78.9,2.20075,0.821964,-0.0401472
81.6,2.49093,0.847181,-0.0401928
84.3,2.77316,0.868002,-0.0414691
87,3.0538,0.884641,-0.042495
89.7,3.33128,0.898274,-0.0398662
92.4,3.60344,0.895817,-0.043467
95.1,3.87432,0.888706,-0.044799
97.8,4.14302,0.883807,-0.0448137
100.5,4.40792,0.874517,-0.0446439
103.2,4.66994,0.85584,-0.045915
105.9,4.93552,0.836369,-0.046006
108.6,5.19878,0.817258,-0.0501657
111.3,5.46056,0.811489,-0.0514899
114,5.72193,0.798777,-0.0498565
116.7,5.98312,0.796361,-0.0460444
119.4,6.24494,0.799562,-0.0513035
122.1,6.50508,0.808473,-0.0499033
124.8,6.76575,0.810799,-0.0499461
127.5,7.02436,0.812387,-0.0498683
130.2,7.28379,0.832822,-0.0473111
132.9,7.54105,0.833777,-0.0486373
135.6,7.79481,0.842728,-0.05072
138.3,8.05574,0.856778,-0.0493938
141,8.3123,0.860354,-0.0520419
143.7,8.56855,0.865812,-0.0533636
146.4,8.82451,0.87979,-0.0507201
149.1,9.07938,0.889141,-0.0520293
151.8,9.33489,0.903926,-0.0520393
154.5,9.59006,0.907556,-0.05204
157.2,9.8455,0.916884,-0.0539408
159.9,10.1005,0.921512,-0.05665
162.6,10.3551,0.929603,-0.05665
165.3,10.6102,0.936315,-0.05665
168,10.8652,0.943015,-0.0566571
170.7,11.1197,0.957756,-0.05796
173.4,11.3749,0.953407,-0.0589057
176.1,11.6298,0.963322,-0.0592445
178.8,11.8849,0.967139,-0.05994
181.5,12.1386,0.969393,-0.062599
184.2,12.3929,0.974746,-0.0638008
186.9,12.647,0.97984,-0.06587
189.6,12.9015,0.980149,-0.0658721
192.3,13.1562,0.981771,-0.0691479
195,13.4102,0.987989,-0.0704749
197.7,13.6637,0.992805,-0.07279
200.4,13.9183,0.997489,-0.0724982
203.1,14.1733,0.993053,-0.07246
205.8,14.4287,0.993291,-0.0738259
208.5,14.6827,1.00875,-0.0783804
211.2,14.9379,1.02479,-0.0796834
213.9,15.1901,1.03718,-0.0810216
216.6,15.4481,1.03899,-0.0820318
219.3,15.703,1.04368,-0.0859652
222,15.9574,1.04758,-0.0894795
224.7,16.2131,1.06427,-0.0947978
227.4,16.4695,1.08503,-0.0915998
230.1,16.7241,1.10042,-0.0983179
232.8,16.9803,1.11481,-0.0962207
235.5,17.2356,1.10581,-0.100228
238.2,17.4918,1.09872,-0.10183
240.9,17.7472,1.08632,-0.107245
243.6,18.0031,1.06939,-0.110607
246.3,18.2591,1.06661,-0.110881
249,18.5145,1.04225,-0.117735
251.7,18.7711,1.02618,-0.122276
254.4,19.0266,1.01962,-0.125242
257.1,19.2833,1.00678,-0.131889
259.8,19.5399,0.987366,-0.137161
262.5,19.7969,0.962184,-0.142395
265.2,20.0522,0.951138,-0.149026
267.9,20.3094,0.935331,-0.15302
270.6,20.5667,0.923289,-0.161147
273.3,20.8241,0.893674,-0.170999
276,21.0813,0.884111,-0.179208
278.7,21.3398,0.960974,-0.1853
281.4,21.5977,1.01543,-0.19497
284.1,21.8554,1.03971,-0.198822
286.8,22.1139,1.05787,-0.208143
289.5,22.3689,1.06195,-0.213384
292.2,22.6285,1.05439,-0.21989
294.9,22.8863,1.06232,-0.225178
297.6,23.1448,1.04808,-0.230263
300.3,23.4022,1.0395,-0.232571
303,23.6612,1.02465,-0.236591
305.7,23.9182,1.01833,-0.240862
308.4,24.176,1.01486,-0.245804
311.1,24.4347,1.00099,-0.248439
313.8,24.692,0.980872,-0.249654
316.5,24.9509,0.974951,-0.253912
319.2,25.2086,0.963802,-0.257803
321.9,25.4668,0.949275,-0.25865
324.6,25.7237,0.945435,-0.262293
327.3,25.984,0.93953,-0.264269
330,26.2424,0.92783,-0.26688
332.7,26.5008,0.933045,-0.268197
335.4,26.7609,0.925859,-0.272149
338.1,27.0198,0.917725,-0.274151
340.8,27.2797,0.917082,-0.27611
343.5,27.54,0.914654,-0.274574
346.2,27.7995,0.907238,-0.278529
348.9,28.061,0.916692,-0.282506
351.6,28.3208,0.923972,-0.28148
354.3,28.5811,0.924054,-0.283885
357,28.8423,0.934486,-0.284697
359.7,29.1039,0.943624,-0.285105
362.4,29.3648,0.952787,-0.2851
365.1,29.6257,0.96751,-0.28741
367.8,29.8881,0.972926,-0.288712
370.5,30.1491,0.981065,-0.29071
373.2,30.4102,0.992539,-0.29136
375.9,30.6713,1.00727,-0.2907
378.6,30.9347,1.01593,-0.293304
381.3,31.1955,1.02843,-0.296895
384,31.4589,1.04155,-0.294848
386.7,31.7214,1.07106,-0.297059
389.4,31.9833,1.0977,-0.298359
392.1,32.2461,1.13651,-0.302274
394.8,32.5092,1.19034,-0.302217
397.5,32.7704,1.25323,-0.304819
400.2,33.0359,1.3259,-0.306174
402.9,33.2994,1.41717,-0.310143
405.6,33.5636,1.55033,-0.313532
408.3,33.8288,1.70951,-0.318203
411,34.0917,1.89146,-0.323429
413.7,34.3592,2.12139,-0.327476
416.4,34.6247,2.36178,-0.335626
419.1,34.8915,2.61224,-0.345148
421.8,35.1567,2.81944,-0.353452
424.5,35.4213,2.92163,-0.364725
427.2,35.6858,2.9349,-0.377309
429.9,35.946,2.82817,-0.397639
432.6,36.2087,2.65094,-0.41614
435.3,36.4692,2.41136,-0.439416
438,36.7313,2.17077,-0.464047
440.7,36.9922,2.01833,-0.492231
443.4,37.2553,1.9322,-0.523605
446.1,37.519,1.91045,-0.555128
448.8,37.7824,1.91452,-0.593036
451.5,38.0462,1.91213,-0.632063
454.2,38.3104,1.90816,-0.66518
456.9,38.575,1.89723,-0.705308
459.6,38.8401,1.86759,-0.744772
462.3,39.1042,1.84312,-0.786239
465,39.3686,1.8053,-0.828397
467.7,39.6308,1.76313,-0.863383
470.4,39.8972,1.71021,-0.899133
473.1,40.1622,1.65193,-0.933301
475.8,40.4271,1.59038,-0.96465
478.5,40.6921,1.51501,-0.994402
481.2,40.9575,1.45398,-1.02441
483.9,41.2232,1.3895,-1.05123
486.6,41.4889,1.33486,-1.07301
489.3,41.7544,1.28537,-1.09768
492,42.0209,1.24239,-1.11888
494.7,42.2863,1.21383,-1.14088
497.4,42.5524,1.18439,-1.15947
500.1,42.8189,1.16974,-1.18015
502.8,43.0849,1.14662,-1.19843
505.5,43.3521,1.13838,-1.22013
508.2,43.617,1.10611,-1.24056
510.9,43.8837,1.09486,-1.26077
513.6,44.1499,1.0876,-1.27799
516.3,44.4165,1.0672,-1.29494
519,44.6823,1.06275,-1.31654
521.7,44.951,1.04925,-1.33453
524.4,45.2175,1.03454,-1.35135
527.1,45.4854,1.02465,-1.37544
529.8,45.7518,1.01163,-1.39384
532.5,46.0204,0.998115,-1.41073
535.2,46.2883,0.976413,-1.43084
537.9,46.5572,0.965375,-1.44716
540.6,46.8247,0.962416,-1.46933
543.3,47.0924,0.949303,-1.48953
546,47.3611,0.918003,-1.5102
548.7,47.6281,0.89393,-1.53065
551.4,47.8951,0.870786,-1.54358
554.1,48.1634,0.83875,-1.56284
556.8,48.4311,0.822516,-1.5778
559.5,48.6991,0.792698,-1.59617
562.2,48.9666,0.76547,-1.61359
564.9,49.2327,0.744742,-1.62759
567.6,49.5022,0.705349,-1.6428
570.3,49.7728,0.685589,-1.65926
573,50.0416,0.664584,-1.67264
575.7,50.3103,0.650213,-1.68602
578.4,50.5784,0.623084,-1.69909
581.1,50.848,0.608728,-1.71187
583.8,51.1167,0.590733,-1.72511
586.5,51.3858,0.582811,-1.73684
589.2,51.6558,0.563298,-1.74807
591.9,51.9262,0.542862,-1.7597
594.6,52.1948,0.539719,-1.7695
597.3,52.4645,0.531337,-1.77716
600,52.7343,0.527531,-1.78767
602.7,53.004,0.529072,-1.7963
605.4,53.2732,0.534605,-1.80704
608.1,53.5428,0.545948,-1.81384
610.8,53.8119,0.548879,-1.82034
613.5,54.0835,0.54649,-1.83397
616.2,54.3535,0.549916,-1.83669
618.9,54.6233,0.55896,-1.84358
621.6,54.8938,0.581848,-1.84797
624.3,55.1641,0.577179,-1.85555
627,55.4347,0.583279,-1.85936
629.7,55.7038,0.595452,-1.86621
632.4,55.9757,0.599002,-1.8742
635.1,56.2448,0.606109,-1.88091
637.8,56.5144,0.61644,-1.88561
640.5,56.7862,0.633458,-1.88842
643.2,57.0557,0.628867,-1.89407
645.9,57.3269,0.639333,-1.89804
648.6,57.5954,0.648838,-1.89972
651.3,57.8643,0.63991,-1.90531
654,58.136,0.648611,-1.91199
656.7,58.4051,0.653937,-1.91545
659.4,58.6732,0.654761,-1.91697
662.1,58.945,0.668139,-1.92277
664.8,59.2155,0.660286,-1.92635
667.5,59.4858,0.666884,-1.93087
670.2,59.7572,0.659176,-1.93086
672.9,60.0276,0.652499,-1.93931
675.6,60.2986,0.647343,-1.94504
678.3,60.5691,0.642601,-1.94744
681,60.84,0.653711,-1.94846
683.7,61.1106,0.648657,-1.95552
686.4,61.381,0.639614,-1.95984
689.1,61.6518,0.636868,-1.96104
691.8,61.9223,0.627438,-1.965
694.5,62.1933,0.603725,-1.9702
697.2,62.465,0.596428,-1.97421
699.9,62.7368,0.599648,-1.98091
702.6,63.0054,0.572716,-1.98116
705.3,63.2791,0.569112,-1.98727
708,63.5491,0.545964,-1.9925
710.7,63.8203,0.536871,-1.99504
713.4,64.0911,0.497526,-1.99918
716.1,64.3598,0.47862,-2.00369
718.8,64.6297,0.44837,-2.00978
721.5,64.9006,0.424631,-2.01389
724.2,65.1697,0.399052,-2.01362
726.9,65.4401,0.372373,-2.02152
729.6,65.7112,0.337556,-2.02675
732.3,65.9817,0.326429,-2.02956
735,66.2519,0.293601,-2.03164
737.7,66.5225,0.254472,-2.03651
740.4,66.7954,0.21351,-2.03822
743.1,67.0669,0.196743,-2.04217
745.8,67.3393,0.164896,-2.04843
748.5,67.612,0.128643,-2.05122
751.2,67.8844,0.105913,-2.05524
753.9,68.1562,0.0739979,-2.05912
756.6,68.4276,0.0561186,-2.06252
759.3,68.6978,0.0272537,-2.06644
762,68.9719,0.0130523,-2.06932
764.7,69.2425,0.00273833,-2.07576
767.4,69.5132,-0.010794,-2.07564
770.1,69.7856,-0.0340463,-2.07961
772.8,70.0578,-0.0590769,-2.08489
775.5,70.3302,-0.0678114,-2.08554
778.2,70.6009,-0.0768971,-2.08883
780.9,70.8742,-0.101134,-2.09343
783.6,71.1492,-0.118976,-2.09476
786.3,71.4233,-0.11684,-2.0957
789,71.6967,-0.117969,-2.09971
791.7,71.972,-0.13432,-2.10135
794.4,72.2465,-0.133826,-2.10399
797.1,72.5217,-0.159174,-2.10641
799.8,72.7954,-0.161529,-2.10928
802.5,73.0682,-0.166986,-2.11056
805.2,73.3414,-0.18422,-2.11052
807.9,73.6131,-0.190772,-2.11195
810.6,73.8868,-0.190515,-2.11321
813.3,74.1603,-0.198411,-2.11687
816,74.4338,-0.206459,-2.11815
818.7,74.7058,-0.204816,-2.12045
821.4,74.9809,-0.216194,-2.12463
824.1,75.2554,-0.221686,-2.12111
826.8,75.5299,-0.226413,-2.12241
829.5,75.8062,-0.24094,-2.1232
832.2,76.0811,-0.227537,-2.1244
834.9,76.3562,-0.228229,-2.12704
837.6,76.6313,-0.230884,-2.12835
840,76.8765,-0.216465,-2.13099

File: Helmet_Strap_STA_N2_10KData_250530_R4.csv
Temp./C,Time/min,DSC/(mW/mg),Mass loss/mg
40.0,0.0,0.771527,-0.0750533
42.7,0.359278,0.879526,-0.0781603
45.4,0.69939,0.962851,-0.0804307
48.1,1.03154,1.05793,-0.0849891
50.8,1.35051,1.16046,-0.0864195
53.5,1.66092,1.26072,-0.090238
56.2,1.9658,1.35691,-0.0955269
58.9,2.26213,1.45123,-0.0981355
61.6,2.55434,1.54179,-0.104374
64.3,2.84167,1.62853,-0.110103
67,3.12277,1.68637,-0.11434
69.7,3.40428,1.72532,-0.120553
72.4,3.68154,1.7517,-0.127119
75.1,3.95584,1.75594,-0.1324
77.8,4.22871,1.73899,-0.138987
80.5,4.49889,1.69613,-0.142051
83.2,4.7691,1.64395,-0.148192
85.9,5.03606,1.5799,-0.152153
88.6,5.30187,1.50789,-0.158454
91.3,5.56536,1.42639,-0.159387
94,5.82452,1.35061,-0.163249
96.7,6.08828,1.2651,-0.165636
99.4,6.34773,1.19021,-0.167207
102.1,6.60605,1.11327,-0.16884
104.8,6.86452,1.04045,-0.169753
107.5,7.12215,0.976286,-0.17115
110.2,7.38051,0.922477,-0.17246
112.9,7.63822,0.881611,-0.171357
115.6,7.89684,0.852749,-0.172498
118.3,8.15468,0.828228,-0.176813
121,8.41225,0.813606,-0.172026
123.7,8.67146,0.811722,-0.173266
126.4,8.92746,0.799289,-0.174662
129.1,9.18561,0.801479,-0.174666
131.8,9.44223,0.809455,-0.17401
134.5,9.69707,0.815931,-0.174659
137.2,9.95347,0.81959,-0.174831
139.9,10.2092,0.826953,-0.176331
142.6,10.4644,0.822454,-0.17598
145.3,10.7189,0.840927,-0.17693
148,10.9738,0.849769,-0.177961
150.7,11.2284,0.859662,-0.176756
153.4,11.4829,0.864604,-0.17729
156.1,11.7371,0.875808,-0.178613
158.8,11.9919,0.882321,-0.179928
161.5,12.2452,0.891886,-0.17927
164.2,12.4996,0.894244,-0.17927
166.9,12.7538,0.900245,-0.180837
169.6,13.0074,0.904837,-0.18058
172.3,13.2624,0.906953,-0.182825
175,13.5164,0.912784,-0.184542
177.7,13.7705,0.914022,-0.18454
180.4,14.0235,0.927827,-0.18553
183.1,14.2786,0.933051,-0.186591
185.8,14.5329,0.932906,-0.187502
188.5,14.7865,0.927933,-0.189821
191.2,15.0406,0.927731,-0.1908
193.9,15.2936,0.942325,-0.19179
196.6,15.5478,0.936389,-0.197375
199.3,15.8009,0.9361,-0.19475
202,16.0548,0.94835,-0.196394
204.7,16.3083,0.955895,-0.197715
207.4,16.5622,0.951559,-0.200344
210.1,16.8157,0.961011,-0.202596
212.8,17.07,0.960374,-0.204319
215.5,17.3243,0.967432,-0.206946
218.2,17.5781,0.972393,-0.20619
220.9,17.8326,0.984414,-0.20891
223.6,18.087,0.991534,-0.210242
226.3,18.3396,1.00841,-0.213221
229,18.5959,1.02544,-0.214533
231.7,18.8517,1.04059,-0.216481
234.4,19.1052,1.05546,-0.22077
237.1,19.3598,1.04292,-0.220709
239.8,19.6152,1.03566,-0.22472
242.5,19.8691,1.02249,-0.228679
245.2,20.1238,1.00767,-0.23131
247.9,20.3792,0.99013,-0.234613
250.6,20.634,0.975828,-0.237927
253.3,20.8877,0.967018,-0.243616
256,21.1448,0.949656,-0.248438
258.7,21.3992,0.943138,-0.251383
261.4,21.6546,0.926313,-0.257652
264.1,21.9106,0.912457,-0.264378
266.8,22.1661,0.898323,-0.269712
269.5,22.4222,0.877081,-0.276543
272.2,22.6768,0.8547,-0.281798
274.9,22.9329,0.807112,-0.287202
277.6,23.1863,0.837077,-0.295222
280.3,23.446,0.90119,-0.302565
283,23.703,0.945652,-0.308907
285.7,23.9597,0.976915,-0.314514
288.4,24.2169,0.981831,-0.319568
291.1,24.4733,0.979432,-0.326382
293.8,24.7306,0.976173,-0.330507
296.5,24.9874,0.968479,-0.3356
299.2,25.2448,0.968911,-0.339626
301.9,25.5015,0.953738,-0.337614
304.6,25.7584,0.939108,-0.353583
307.3,26.0158,0.921291,-0.35412
310,26.2732,0.894865,-0.3547
312.7,26.5312,0.89214,-0.35733
315.4,26.7881,0.879902,-0.359911
318.1,27.0479,0.859108,-0.362596
320.8,27.3051,0.852863,-0.36623
323.5,27.5641,0.842705,-0.368485
326.2,27.8231,0.833459,-0.36952
328.9,28.0805,0.820815,-0.36975
331.6,28.3403,0.818572,-0.372406
334.3,28.5995,0.80966,-0.375382
337,28.8587,0.811393,-0.37666
339.7,29.1174,0.816244,-0.377747
342.4,29.3778,0.809868,-0.377703
345.1,29.6371,0.814954,-0.376795
347.8,29.8976,0.807306,-0.386874
350.5,30.1576,0.821181,-0.384148
353.2,30.418,0.819635,-0.386769
355.9,30.6786,0.833144,-0.387091
358.6,30.9391,0.846395,-0.388411
361.3,31.1988,0.849804,-0.38874
364,31.4594,0.859266,-0.39016
366.7,31.7205,0.862345,-0.39148
369.4,31.9815,0.879757,-0.39149
372.1,32.243,0.893502,-0.39147
374.8,32.5039,0.902573,-0.39411
377.5,32.7655,0.920273,-0.39543
380.2,33.0261,0.943698,-0.396748
382.9,33.2892,0.958553,-0.397741
385.6,33.5515,0.968577,-0.39905
388.3,33.8116,0.997814,-0.399063
391,34.0758,1.02783,-0.401107
393.7,34.3384,1.07896,-0.402318
396.4,34.601,1.13642,-0.40367
399.1,34.8646,1.21004,-0.407009
401.8,35.1282,1.29773,-0.410259
404.5,35.392,1.3987,-0.412888
407.2,35.6566,1.55535,-0.415808
409.9,35.9219,1.72697,-0.421225
412.6,36.1874,1.93946,-0.427666
415.3,36.453,2.18543,-0.432972
418,36.7185,2.43453,-0.441076
420.7,36.9862,2.63918,-0.449638
423.4,37.2508,2.75572,-0.461637
426.1,37.5134,2.778,-0.47536
428.8,37.7773,2.69116,-0.490163
431.5,38.0389,2.5189,-0.507666
434.2,38.3003,2.28477,-0.525533
436.9,38.5619,2.03979,-0.551928
439.6,38.8228,1.85979,-0.578073
442.3,39.0863,1.77981,-0.606279
445,39.3498,1.74292,-0.639839
447.7,39.6144,1.7461,-0.669358
450.4,39.8785,1.74913,-0.706656
453.1,40.1434,1.7454,-0.742587
455.8,40.4085,1.73543,-0.781976
458.5,40.6733,1.7177,-0.819453
461.2,40.9375,1.70231,-0.85827
463.9,41.203,1.66474,-0.895371
466.6,41.4686,1.63067,-0.930887
469.3,41.7315,1.5829,-0.967846
472,41.9997,1.54848,-1.00295
474.7,42.2636,1.48771,-1.03541
477.4,42.5291,1.43462,-1.06662
480.1,42.7945,1.36719,-1.09609
482.8,43.0592,1.31618,-1.12198
485.5,43.3248,1.25992,-1.1481
488.2,43.5908,1.20642,-1.17128
490.9,43.8566,1.16082,-1.19074
493.6,44.124,1.12822,-1.21337
496.3,44.3895,1.08703,-1.23449
499,44.6574,1.05309,-1.25268
501.7,44.9245,1.03073,-1.27163
504.4,45.1914,1.02074,-1.29001
507.1,45.4592,0.994797,-1.30825
509.8,45.725,0.981582,-1.32769
512.5,45.9914,0.968584,-1.34593
515.2,46.2594,0.949682,-1.36142
517.9,46.5267,0.939631,-1.38166
520.6,46.7952,0.935627,-1.39575
523.3,47.0621,0.928999,-1.41463
526,47.3291,0.915004,-1.43396
528.7,47.5972,0.906847,-1.45094
531.4,47.8644,0.890535,-1.4692
534.1,48.1335,0.877664,-1.48767
536.8,48.4012,0.869908,-1.50761
539.5,48.6695,0.856762,-1.52553
542.2,48.9368,0.852613,-1.54432
544.9,49.2045,0.826909,-1.56272
547.6,49.4731,0.805691,-1.58054
550.3,49.7412,0.773261,-1.59886
553,50.0096,0.746688,-1.6189
555.7,50.2782,0.720098,-1.63365
558.4,50.5469,0.691236,-1.65116
561.1,50.8151,0.662524,-1.66883
563.8,51.0828,0.63702,-1.68414
566.5,51.3523,0.591342,-1.69946
569.2,51.6205,0.572013,-1.71393
571.9,51.8896,0.546795,-1.72925
574.6,52.1579,0.515309,-1.74265
577.3,52.4286,0.496838,-1.75501
580,52.6978,0.478472,-1.76979
582.7,52.9675,0.458705,-1.78311
585.4,53.2372,0.458003,-1.79516
588.1,53.5064,0.442115,-1.80529
590.8,53.7763,0.438963,-1.8145
593.5,54.0461,0.440029,-1.8258
596.2,54.3155,0.43891,-1.83582
598.9,54.5864,0.444112,-1.84438
601.6,54.8559,0.4445,-1.85316
604.3,55.1267,0.453878,-1.86183
607,55.3969,0.464822,-1.86977
609.7,55.6671,0.468455,-1.87889
612.4,55.9379,0.477472,-1.88437
615.1,56.209,0.498473,-1.89351
617.8,56.4791,0.514274,-1.89956
620.5,56.7499,0.52719,-1.90581
623.2,57.0194,0.53921,-1.9142
625.9,57.2902,0.557194,-1.91956
628.6,57.5596,0.559554,-1.92619
631.3,57.8305,0.563307,-1.93148
634,58.0991,0.567308,-1.93413
636.7,58.3719,0.590106,-1.93931
639.4,58.6412,0.598433,-1.94602
642.1,58.9124,0.607783,-1.94996
644.8,59.183,0.625391,-1.95523
647.5,59.4529,0.628106,-1.95817
650.2,59.7242,0.63947,-1.96355
652.9,59.9957,0.649101,-1.96725
655.6,60.2662,0.65788,-1.97244
658.3,60.5365,0.670776,-1.97635
661,60.8079,0.674146,-1.97964
663.7,61.0794,0.683225,-1.98442
666.4,61.3501,0.673315,-1.98838
669.1,61.6214,0.697019,-1.99364
671.8,61.8919,0.69816,-1.99887
674.5,62.1623,0.69092,-1.99983
677.2,62.4331,0.6844,-2.00385
679.9,62.7035,0.67995,-2.00827
682.6,62.9751,0.666918,-2.0109
685.3,63.2456,0.670969,-2.01472
688,63.5156,0.66011,-2.02016
690.7,63.7883,0.648618,-2.02293
693.4,64.0568,0.646624,-2.02586
696.1,64.3285,0.636288,-2.02965
698.8,64.6001,0.62283,-2.0335
701.5,64.8707,0.613992,-2.03888
704.2,65.1428,0.606873,-2.04251
706.9,65.4147,0.5874,-2.04652
709.6,65.6853,0.57683,-2.05036
712.3,65.9557,0.567231,-2.05338
715,66.2276,0.542684,-2.05828
717.7,66.498,0.54207,-2.06226
720.4,66.7696,0.541029,-2.06456
723.1,67.0398,0.521112,-2.06983
725.8,67.3118,0.500906,-2.07302
728.5,67.5828,0.483689,-2.07654
731.2,67.8537,0.466635,-2.08048
733.9,68.1262,0.443111,-2.08481
736.6,68.3983,0.434323,-2.08945
739.3,68.6709,0.413282,-2.09363
742,68.9418,0.405358,-2.09849
744.7,69.2151,0.381414,-2.10024
747.4,69.4865,0.358838,-2.10694
750.1,69.7574,0.328301,-2.11083
752.8,70.03,0.302391,-2.11357
755.5,70.3009,0.28955,-2.11879
758.2,70.5741,0.263416,-2.12276
760.9,70.8463,0.263112,-2.12683
763.6,71.1179,0.235208,-2.12981
766.3,71.3914,0.217887,-2.13483
769,71.663,0.207277,-2.13746
771.7,71.936,0.188426,-2.14247
774.4,72.2082,0.165351,-2.14579
777.1,72.4803,0.147666,-2.14839
779.8,72.7537,0.115134,-2.14979
782.5,73.0252,0.0984172,-2.15501
785.2,73.2983,0.0819527,-2.15568
787.9,73.5718,0.0576032,-2.15898
790.6,73.8424,0.0396692,-2.16063
793.3,74.1176,0.0154933,-2.16458
796,74.3911,0.00670033,-2.16568
798.7,74.6639,-0.00318702,-2.16985
801.4,74.9361,-0.0200068,-2.17087
804.1,75.2077,-0.0306675,-2.17115
806.8,75.4837,-0.0508632,-2.17286
809.5,75.7577,-0.0675479,-2.17545
812.2,76.0309,-0.0703972,-2.17643
814.9,76.305,-0.06693,-2.17742
817.6,76.5784,-0.067405,-2.17929
820.3,76.8511,-0.0706685,-2.17988
823,77.1254,-0.0677992,-2.18128
825.7,77.3993,-0.0736426,-2.18292
828.4,77.6727,-0.0811603,-2.1839
831.1,77.9464,-0.0933285,-2.18522
833.8,78.2203,-0.107723,-2.1851
836.5,78.4952,-0.0976343,-2.18818
839.2,78.7687,-0.0923992,-2.18951
840,78.8483,-0.092928,-2.18951