Folder: fsri_materials_database/01_Data/Helmet_Strap/STA/N2/10K_min

File: Helmet_Strap_STA_N2_10KData_250303_R1.csv
Temp./C,Time/min,DSC/(mW/mg),Mass loss/mg
60.0,0.0,0.561198,-0.0014095
62.7,0.353719,0.617474,-0.00289822
65.4,0.68619,0.658102,-0.00338728
68.1,1.00387,0.691164,-0.0033841
70.8,1.31587,0.728672,-0.00358557
73.5,1.62071,0.760075,-0.00227052
76.2,1.91744,0.797177,-0.00493543
78.9,2.2107,0.819606,-0.00623627
81.6,2.49921,0.850381,-0.00626421
84.3,2.78291,0.864777,-0.00756391
87,3.06229,0.876933,-0.00756639
89.7,3.33845,0.890855,-0.00812067
92.4,3.61251,0.896201,-0.0116353
95.1,3.88333,0.888007,-0.0106258
97.8,4.15017,0.880994,-0.0129264
100.5,4.41602,0.865431,-0.0116301
103.2,4.68262,0.845665,-0.0116314
105.9,4.9455,0.83435,-0.0132662
108.6,5.20897,0.815538,-0.014269
111.3,5.47083,0.789753,-0.0155902
114,5.73259,0.775227,-0.0136423
116.7,5.99474,0.779884,-0.0131412
119.4,6.2553,0.76654,-0.013737
122.1,6.51558,0.767348,-0.0163598
124.8,6.7756,0.771248,-0.0166803
127.5,7.03411,0.771333,-0.0149204
130.2,7.29256,0.777985,-0.0152609
132.9,7.55242,0.777412,-0.0152607
135.6,7.80747,0.78779,-0.015261
138.3,8.06582,0.799145,-0.0126223
141,8.32423,0.805237,-0.0148275
143.7,8.57929,0.804036,-0.0164796
146.4,8.83601,0.818833,-0.01526
149.1,9.09089,0.823197,-0.0146
151.8,9.34718,0.82811,-0.0169001
154.5,9.60219,0.825497,-0.0145922
157.2,9.85669,0.835247,-0.01724
159.9,10.111,0.843793,-0.0162445
162.6,10.3668,0.852544,-0.0172293
165.3,10.6206,0.852879,-0.0178915
168,10.8742,0.865065,-0.0175342
170.7,11.1297,0.863158,-0.0201945
173.4,11.3847,0.865388,-0.0188792
176.1,11.6385,0.887341,-0.0195821
178.8,11.8935,0.887982,-0.0211803
181.5,12.1483,0.893387,-0.0211822
184.2,12.4022,0.896853,-0.02151
186.9,12.6573,0.905494,-0.0225102
189.6,12.9085,0.912379,-0.0251449
192.3,13.1645,0.921731,-0.0244326
195,13.4177,0.91566,-0.0254506
197.7,13.6718,0.919664,-0.0272807
200.4,13.9255,0.928795,-0.0277851
203.1,14.1785,0.931535,-0.0304142
205.8,14.4315,0.927476,-0.032431
208.5,14.6871,0.936101,-0.03436
211.2,14.9417,0.938327,-0.0330394
213.9,15.1961,0.942139,-0.0356772
216.6,15.45,0.958286,-0.03766
219.3,15.7057,0.959063,-0.04029
222,15.9604,0.970815,-0.0417879
224.7,16.2161,0.980371,-0.0442366
227.4,16.4711,0.992947,-0.0468792
230.1,16.7252,1.00071,-0.0488544
232.8,16.9799,1.00668,-0.0521399
235.5,17.2356,0.993051,-0.05412
238.2,17.4907,0.976827,-0.0574004
240.9,17.7446,0.966167,-0.0600562
243.6,18.0003,0.962037,-0.0653186
246.3,18.2546,0.963496,-0.0679493
249,18.5098,0.957959,-0.0732261
251.7,18.7651,0.950392,-0.0771912
254.4,19.0202,0.940606,-0.0829888
257.1,19.2761,0.955779,-0.0884724
259.8,19.5295,0.945438,-0.0944647
262.5,19.7845,0.943724,-0.102683
265.2,20.0418,0.947007,-0.108933
267.9,20.297,0.937481,-0.117976
270.6,20.5537,0.913967,-0.124929
273.3,20.8086,0.891486,-0.13429
276,21.066,0.900566,-0.139745
278.7,21.3226,0.957993,-0.147891
281.4,21.579,1.02016,-0.155856
284.1,21.8363,1.04085,-0.163126
286.8,22.0927,1.04763,-0.170552
289.5,22.3479,1.05307,-0.176748
292.2,22.6066,1.04646,-0.185582
294.9,22.8646,1.04547,-0.188492
297.6,23.121,1.04174,-0.194509
300.3,23.377,1.02354,-0.199031
303,23.6337,1.00616,-0.204358
305.7,23.8907,1.00053,-0.208775
308.4,24.1472,0.984314,-0.213664
311.1,24.405,0.976727,-0.217169
313.8,24.6623,0.961157,-0.22111
316.5,24.9196,0.942454,-0.223052
319.2,25.1768,0.923445,-0.22735
321.9,25.4346,0.906088,-0.229665
324.6,25.6927,0.90171,-0.233942
327.3,25.9506,0.884164,-0.23526
330,26.2091,0.868866,-0.235261
332.7,26.4665,0.880094,-0.23954
335.4,26.7249,0.875954,-0.240862
338.1,26.9837,0.869447,-0.244602
340.8,27.2441,0.866429,-0.245808
343.5,27.5025,0.874782,-0.24811
346.2,27.7617,0.875227,-0.249428
348.9,28.0209,0.872149,-0.252159
351.6,28.2805,0.878664,-0.255613
354.3,28.5406,0.881792,-0.257363
357,28.7979,0.884545,-0.25876
359.7,29.0597,0.891803,-0.257197
362.4,29.3207,0.899334,-0.26041
365.1,29.5805,0.902294,-0.261723
367.8,29.8413,0.926449,-0.26435
370.5,30.0996,0.937704,-0.265683
373.2,30.3624,0.951362,-0.265778
375.9,30.6232,0.965681,-0.268892
378.6,30.8841,0.980042,-0.269951
381.3,31.1442,0.990984,-0.271891
384,31.407,1.01641,-0.271159
386.7,31.6688,1.04052,-0.275113
389.4,31.931,1.07719,-0.275683
392.1,32.1932,1.122,-0.279608
394.8,32.4542,1.17585,-0.281658
397.5,32.7166,1.24609,-0.28422
400.2,32.98,1.32992,-0.285537
402.9,33.242,1.42327,-0.289437
405.6,33.5052,1.54553,-0.294101
408.3,33.7705,1.69896,-0.299304
411,34.0347,1.88701,-0.30453
413.7,34.2996,2.10652,-0.311077
416.4,34.5645,2.33812,-0.319905
419.1,34.8305,2.5601,-0.329606
421.8,35.0942,2.75643,-0.337976
424.5,35.3578,2.86361,-0.35256
427.2,35.6219,2.8881,-0.366696
429.9,35.8825,2.79581,-0.383622
432.6,36.1437,2.5883,-0.40538
435.3,36.4047,2.29819,-0.42896
438,36.6645,2.04202,-0.455453
440.7,36.9255,1.88728,-0.484271
443.4,37.1876,1.81538,-0.517815
446.1,37.4509,1.78399,-0.553029
448.8,37.7139,1.79611,-0.591562
451.5,37.9768,1.79103,-0.631568
454.2,38.2406,1.79296,-0.674427
456.9,38.5042,1.77852,-0.715561
459.6,38.7683,1.76546,-0.759024
462.3,39.0315,1.73132,-0.803158
465,39.2939,1.67078,-0.848886
467.7,39.5565,1.62443,-0.890277
470.4,39.8209,1.56252,-0.934545
473.1,40.0832,1.50215,-0.974446
475.8,40.3493,1.42905,-1.01448
478.5,40.6115,1.3604,-1.05675
481.2,40.8745,1.30744,-1.09401
483.9,41.1402,1.24757,-1.13211
486.6,41.404,1.18852,-1.165
489.3,41.6697,1.1324,-1.19814
492,41.933,1.07943,-1.23017
494.7,42.1987,1.04043,-1.25818
497.4,42.4642,0.993653,-1.28663
500.1,42.7268,0.9571,-1.30991
502.8,42.9938,0.924557,-1.33393
505.5,43.2589,0.884123,-1.35694
508.2,43.5243,0.854885,-1.3755
510.9,43.7904,0.811812,-1.39639
513.6,44.0561,0.781795,-1.41388
516.3,44.3223,0.757414,-1.43042
519,44.5879,0.739194,-1.44957
521.7,44.8545,0.716826,-1.46699
524.4,45.1206,0.700746,-1.48359
527.1,45.3868,0.681284,-1.50016
529.8,45.6531,0.662862,-1.515
532.5,45.9186,0.642055,-1.53382
535.2,46.1851,0.617868,-1.54858
537.9,46.4522,0.600328,-1.56544
540.6,46.7201,0.587843,-1.58156
543.3,46.9868,0.559321,-1.59776
546,47.2528,0.545658,-1.6121
548.7,47.5183,0.514685,-1.62644
551.4,47.7856,0.486511,-1.641
554.1,48.0521,0.462939,-1.65605
556.8,48.3188,0.434383,-1.67085
559.5,48.5857,0.415131,-1.6839
562.2,48.8532,0.380083,-1.69839
564.9,49.1207,0.362494,-1.71131
567.6,49.388,0.335675,-1.72729
570.3,49.6541,0.321134,-1.73795
573,49.9239,0.29985,-1.74986
575.7,50.1925,0.274224,-1.76203
578.4,50.459,0.255974,-1.77571
581.1,50.7274,0.24795,-1.78506
583.8,50.9955,0.232474,-1.7959
586.5,51.2636,0.23155,-1.80844
589.2,51.5313,0.234653,-1.81606
591.9,51.7986,0.236801,-1.8234
594.6,52.068,0.247963,-1.8388
597.3,52.3368,0.246433,-1.84435
600,52.6061,0.254568,-1.85446
602.7,52.8746,0.262183,-1.86162
605.4,53.1436,0.270861,-1.86954
608.1,53.4121,0.276335,-1.88011
610.8,53.6817,0.282752,-1.88253
613.5,53.9509,0.290709,-1.88987
616.2,54.2191,0.312261,-1.89963
618.9,54.4891,0.322354,-1.90516
621.6,54.7567,0.327536,-1.90986
624.3,55.0262,0.332758,-1.91517
627,55.2966,0.343443,-1.92133
629.7,55.5656,0.357557,-1.92647
632.4,55.8346,0.374899,-1.93306
635.1,56.1051,0.376962,-1.93715
637.8,56.3736,0.387549,-1.94019
640.5,56.6443,0.396505,-1.94535
643.2,56.9132,0.408205,-1.94933
645.9,57.1829,0.413744,-1.95226
648.6,57.4518,0.402386,-1.95886
651.3,57.7209,0.413359,-1.96148
654,57.9904,0.403627,-1.96664
656.7,58.2604,0.406672,-1.97158
659.4,58.5291,0.406119,-1.97379
662.1,58.7985,0.398607,-1.97706
664.8,59.067,0.410949,-1.98214
667.5,59.3363,0.408918,-1.98396
670.2,59.6047,0.41575,-1.98444
672.9,59.8741,0.411318,-1.99134
675.6,60.144,0.414937,-1.99632
678.3,60.4141,0.407001,-1.99729
681,60.6825,0.390819,-2.0013
683.7,60.9522,0.381536,-2.00552
686.4,61.2211,0.373599,-2.01024
689.1,61.4904,0.348565,-2.01397
691.8,61.7597,0.345604,-2.01627
694.5,62.0296,0.323196,-2.01791
697.2,62.3009,0.310282,-2.02318
699.9,62.5697,0.122844,-2.02561
702.6,62.8409,0.0805088,-2.02832
705.3,63.111,0.0524467,-2.03351
708,63.3806,0.0236467,-2.03746
710.7,63.6534,-0.00693168,-2.04141
713.4,63.9211,-0.0194236,-2.04668
716.1,64.1936,-0.0517071,-2.04993
718.8,64.4643,-0.069063,-2.05327
721.5,64.7343,-0.0869369,-2.05558
724.2,65.005,-0.0965612,-2.06063
726.9,65.2757,-0.0940619,-2.06522
729.6,65.5445,0.129774,-2.07016
732.3,65.818,0.120349,-2.07412
735,66.0885,0.114082,-2.07499
737.7,66.359,0.108654,-2.08256
740.4,66.6309,0.101963,-2.08576
743.1,66.9024,0.0868009,-2.08843
745.8,67.174,0.070133,-2.09212
748.5,67.4454,0.0564098,-2.09499
751.2,67.7181,0.0434749,-2.09833
753.9,67.989,0.0264926,-2.10196
756.6,68.2606,0.0112966,-2.10494
759.3,68.5328,-0.00839392,-2.1081
762,68.8044,-0.02049,-2.11
764.7,69.0765,-0.0305097,-2.11593
767.4,69.3488,-0.0477814,-2.11629
770.1,69.6209,-0.0687206,-2.12023
772.8,69.8936,-0.0902115,-2.12528
775.5,70.1664,-0.087381,-2.1266
778.2,70.438,-0.0902252,-2.12921
780.9,70.7114,-0.0963641,-2.13284
783.6,70.984,-0.110673,-2.13418
786.3,71.2577,-0.124265,-2.13647
789,71.5286,-0.1292,-2.13943
791.7,71.8026,-0.131893,-2.1421
794.4,72.0752,-0.137201,-2.14229
797.1,72.3484,-0.140703,-2.14372
799.8,72.6213,-0.145795,-2.14638
802.5,72.8944,-0.164419,-2.14801
805.2,73.1669,-0.164152,-2.15092
807.9,73.4382,-0.169912,-2.15327
810.6,73.7152,-0.161497,-2.1546
813.3,73.9883,-0.168509,-2.15601
816,74.2597,-0.150479,-2.15856
818.7,74.5352,-0.164439,-2.15717
821.4,74.8085,-0.148148,-2.15844
824.1,75.0832,-0.149315,-2.16107
826.8,75.3574,-0.149759,-2.16239
829.5,75.6319,-0.142554,-2.16373
832.2,75.9053,-0.128736,-2.16498
834.9,76.1804,-0.117025,-2.16634
837.6,76.4557,-0.116177,-2.16634
840,76.7007,-0.128161,-2.16897

File: Helmet_Strap_STA_N2_10KData_250331_R2.csv
Temp./C,Time/min,DSC/(mW/mg),Mass loss/mg
60.0,0.0,0.610232,-0.0345872
62.7,0.347792,0.668743,-0.036551
65.4,0.677855,0.715319,-0.0358784
68.1,0.997061,0.748283,-0.035827
70.8,1.30743,0.79686,-0.0372887
73.5,1.61031,0.828207,-0.0335494
76.2,1.91043,0.856548,-0.0385301
78.9,2.20294,0.888609,-0.0425904
81.6,2.49029,0.924623,-0.0441867
84.3,2.77649,0.95725,-0.0428004
87,3.05666,0.96305,-0.0467758
89.7,3.33274,0.969676,-0.0451206
92.4,3.60698,0.96618,-0.0464328
95.1,3.87863,0.965594,-0.0451108
97.8,4.14686,0.965978,-0.0460512
100.5,4.41424,0.951493,-0.0477387
103.2,4.68004,0.944302,-0.0490673
105.9,4.94455,0.933473,-0.04907
108.6,5.20778,0.922958,-0.0497264
111.3,5.46974,0.904791,-0.0502558
114,5.73149,0.897308,-0.0489616
116.7,5.99263,0.887986,-0.0491795
119.4,6.25314,0.881197,-0.04918
122.1,6.51286,0.890027,-0.0498231
124.8,6.77371,0.892664,-0.0502482
127.5,7.03255,0.899528,-0.051074
130.2,7.2913,0.909749,-0.0510395
132.9,7.54985,0.916333,-0.0521513
135.6,7.80684,0.919304,-0.0508902
138.3,8.06429,0.931939,-0.0536036
141,8.32199,0.933417,-0.0510505
143.7,8.57771,0.937098,-0.05236
146.4,8.83276,0.944876,-0.0536794
149.1,9.08817,0.960815,-0.0525898
151.8,9.34419,0.967986,-0.0510626
154.5,9.59913,0.971159,-0.0532344
157.2,9.85205,0.977469,-0.0545433
159.9,10.1098,0.984848,-0.0560706
162.6,10.365,0.999513,-0.0560863
165.3,10.6209,1.00018,-0.0574102
168,10.8752,1.00271,-0.0587297
170.7,11.1295,1.01112,-0.0604284
173.4,11.3849,1.01454,-0.0600573
176.1,11.6393,1.02527,-0.0600342
178.8,11.8934,1.0361,-0.0637374
181.5,12.1477,1.04411,-0.0620588
184.2,12.4024,1.0467,-0.0646592
186.9,12.6576,1.04715,-0.0674883
189.6,12.9109,1.06475,-0.0688391
192.3,13.1653,1.05892,-0.0662
195,13.4188,1.07052,-0.0684971
197.7,13.6735,1.07575,-0.0697898
200.4,13.9277,1.07512,-0.0744706
203.1,14.1841,1.08379,-0.0765211
205.8,14.4373,1.08445,-0.075199
208.5,14.6913,1.0838,-0.0788318
211.2,14.9471,1.08915,-0.0814591
213.9,15.2011,1.10264,-0.0808013
216.6,15.454,1.11686,-0.08297
219.3,15.7106,1.11491,-0.0870494
222,15.9655,1.1253,-0.0888949
224.7,16.2205,1.14765,-0.0880514
227.4,16.4749,1.17639,-0.0906819
230.1,16.7302,1.17846,-0.092255
232.8,16.9849,1.1931,-0.0972983
235.5,17.2404,1.19417,-0.0993603
238.2,17.4953,1.17737,-0.103075
240.9,17.75,1.1691,-0.10498
243.6,18.0056,1.1484,-0.10901
246.3,18.2604,1.13502,-0.110906
249,18.5146,1.10855,-0.115158
251.7,18.7708,1.10494,-0.12087
254.4,19.027,1.09929,-0.126134
257.1,19.2817,1.08573,-0.129209
259.8,19.5381,1.0741,-0.13519
262.5,19.7936,1.05987,-0.141467
265.2,20.0494,1.04225,-0.147659
267.9,20.3047,1.03851,-0.157211
270.6,20.5611,1.01189,-0.159018
273.3,20.8165,0.974376,-0.164589
276,21.0731,0.966189,-0.172566
278.7,21.3305,1.0357,-0.180918
281.4,21.5877,1.08724,-0.192588
284.1,21.8453,1.12842,-0.196292
286.8,22.1025,1.13601,-0.20023
289.5,22.3589,1.14573,-0.204237
292.2,22.6154,1.1476,-0.213961
294.9,22.8736,1.14484,-0.216735
297.6,23.1306,1.14562,-0.222418
300.3,23.3878,1.13269,-0.230068
303,23.6461,1.12059,-0.228892
305.7,23.9035,1.10961,-0.232132
308.4,24.1608,1.08863,-0.240096
311.1,24.4167,1.07393,-0.240076
313.8,24.6778,1.0661,-0.244299
316.5,24.9359,1.05952,-0.245583
319.2,25.1939,1.04517,-0.24822
321.9,25.4518,1.0305,-0.252442
324.6,25.7108,1.00971,-0.25382
327.3,25.969,1.00282,-0.256035
330,26.2287,0.991158,-0.25788
332.7,26.4873,0.9811,-0.25964
335.4,26.7475,0.982632,-0.263589
338.1,27.0069,0.980716,-0.264249
340.8,27.2671,0.978666,-0.266881
343.5,27.5257,0.965902,-0.2682
346.2,27.786,0.976495,-0.270172
348.9,28.0453,0.988232,-0.272103
351.6,28.3067,0.995994,-0.270832
354.3,28.5665,1.02005,-0.27479
357,28.8273,1.02667,-0.273471
359.7,29.0872,1.04208,-0.279795
362.4,29.3483,1.04462,-0.277418
365.1,29.61,1.05935,-0.280392
367.8,29.8714,1.07326,-0.277896
370.5,30.1328,1.07397,-0.281428
373.2,30.3935,1.08597,-0.280555
375.9,30.6548,1.09075,-0.276338
378.6,30.9171,1.1037,-0.28456
381.3,31.1776,1.11641,-0.283236
384,31.4397,1.12963,-0.287191
386.7,31.7013,1.1432,-0.288516
389.4,31.9627,1.18139,-0.288405
392.1,32.2261,1.22326,-0.28719
394.8,32.4869,1.27247,-0.289243
397.5,32.7504,1.32432,-0.29291
400.2,33.0137,1.4034,-0.29795
402.9,33.2763,1.50453,-0.29708
405.6,33.5406,1.62139,-0.299142
408.3,33.8051,1.77194,-0.302837
411,34.0703,1.93765,-0.309596
413.7,34.3362,2.1565,-0.31375
416.4,34.602,2.40138,-0.320572
419.1,34.8678,2.64965,-0.333252
421.8,35.1334,2.83614,-0.338435
424.5,35.4009,2.96211,-0.347933
427.2,35.6643,2.98345,-0.362345
429.9,35.9279,2.89524,-0.379268
432.6,36.1908,2.72449,-0.401607
435.3,36.4493,2.49141,-0.419363
438,36.7125,2.2612,-0.441991
440.7,36.9758,2.09774,-0.471745
443.4,37.2388,2.01191,-0.499323
446.1,37.5027,1.97366,-0.532155
448.8,37.7667,1.9586,-0.566217
451.5,38.0316,1.95734,-0.602301
454.2,38.2949,1.94852,-0.640443
456.9,38.5583,1.9564,-0.676009
459.6,38.8233,1.93313,-0.714118
462.3,39.0878,1.89383,-0.750458
465,39.3534,1.87767,-0.789146
467.7,39.618,1.83349,-0.829365
470.4,39.8821,1.78126,-0.85878
473.1,40.1464,1.71488,-0.895626
475.8,40.4114,1.64245,-0.922634
478.5,40.677,1.57719,-0.955211
481.2,40.942,1.51457,-0.978625
483.9,41.2065,1.46184,-1.00366
486.6,41.4723,1.40432,-1.02596
489.3,41.7361,1.37045,-1.04941
492,42.0019,1.33645,-1.0689
494.7,42.268,1.3104,-1.08903
497.4,42.5334,1.28419,-1.10651
500.1,42.8,1.2572,-1.12696
502.8,43.0658,1.24859,-1.14798
505.5,43.3329,1.2442,-1.16526
508.2,43.5981,1.23342,-1.18595
510.9,43.8643,1.22945,-1.20562
513.6,44.1308,1.20761,-1.22039
516.3,44.3974,1.20566,-1.24147
519,44.6635,1.19805,-1.25949
521.7,44.9315,1.19645,-1.2811
524.4,45.1987,1.19029,-1.29816
527.1,45.4658,1.18278,-1.31813
529.8,45.7336,1.17186,-1.33832
532.5,46.0017,1.15667,-1.35757
535.2,46.2683,1.14451,-1.37796
537.9,46.5354,1.12604,-1.40049
540.6,46.8029,1.1028,-1.41986
543.3,47.0701,1.08056,-1.43396
546,47.3377,1.05232,-1.45271
548.7,47.6056,1.04039,-1.46921
551.4,47.8724,1.01211,-1.48828
554.1,48.1395,0.975648,-1.50575
556.8,48.4079,0.965001,-1.5214
559.5,48.6745,0.929964,-1.54241
562.2,48.9422,0.909032,-1.55518
564.9,49.2081,0.872995,-1.57345
567.6,49.4763,0.847844,-1.58318
570.3,49.7449,0.825639,-1.60297
573,50.012,0.809696,-1.61584
575.7,50.2797,0.786738,-1.63136
578.4,50.5489,0.773317,-1.64447
581.1,50.8161,0.756748,-1.65344
583.8,51.0844,0.739338,-1.66654
586.5,51.3534,0.717987,-1.68008
589.2,51.6209,0.701182,-1.69146
591.9,51.8904,0.699876,-1.6993
594.6,52.1588,0.691421,-1.70977
597.3,52.4278,0.681411,-1.7188
600,52.6973,0.680387,-1.72686
602.7,52.9669,0.676774,-1.73798
605.4,53.236,0.686141,-1.74368
608.1,53.5056,0.68294,-1.7506
610.8,53.7751,0.683818,-1.76178
613.5,54.0454,0.682226,-1.76992
616.2,54.3141,0.686479,-1.77461
618.9,54.5841,0.680633,-1.78209
621.6,54.854,0.676483,-1.79025
624.3,55.1239,0.688083,-1.79238
627,55.3934,0.674919,-1.80368
629.7,55.6626,0.67308,-1.80454
632.4,55.9328,0.663739,-1.81197
635.1,56.2022,0.661234,-1.81844
637.8,56.472,0.66707,-1.82202
640.5,56.7415,0.669117,-1.82817
643.2,57.0117,0.658215,-1.83158
645.9,57.2813,0.642957,-1.83523
648.6,57.5512,0.63195,-1.83871
651.3,57.82,0.613602,-1.84424
654,58.0895,0.604576,-1.84955
656.7,58.3597,0.595181,-1.85377
659.4,58.6281,0.565568,-1.85357
662.1,58.898,0.557885,-1.86325
664.8,59.1674,0.536938,-1.86608
667.5,59.437,0.516069,-1.86654
670.2,59.7057,0.502732,-1.86993
672.9,59.9729,0.471754,-1.87321
675.6,60.2451,0.442696,-1.88408
678.3,60.5133,0.413931,-1.88678
681,60.7827,0.377835,-1.8857
683.7,61.0516,0.34274,-1.89283
686.4,61.3197,0.302549,-1.89649
689.1,61.5886,0.270916,-1.90051
691.8,61.8576,0.230129,-1.90353
694.5,62.1271,0.20444,-1.90758
697.2,62.397,0.177291,-1.91153
699.9,62.6662,0.142923,-1.91582
702.6,62.9351,0.10911,-1.91932
705.3,63.2033,0.0801258,-1.92179
708,63.4734,0.0502207,-1.92639
710.7,63.7427,0.0014021,-1.92895
713.4,64.0122,-0.0384866,-1.93572
716.1,64.2828,-0.0772965,-1.94302
718.8,64.5529,-0.104166,-1.94341
721.5,64.8242,-0.141697,-1.94491
724.2,65.0942,-0.18418,-1.95031
726.9,65.3661,-0.236385,-1.95532
729.6,65.6366,-0.274937,-1.95975
732.3,65.9073,-0.317204,-1.96335
735,66.178,-0.367622,-1.96739
737.7,66.4473,-0.411573,-1.97432
740.4,66.7197,-0.441824,-1.97994
743.1,66.99,-0.487347,-1.98129
745.8,67.2612,-0.530996,-1.98601
748.5,67.5325,-0.567031,-1.98927
751.2,67.8026,-0.613025,-1.99227
753.9,68.0745,-0.640948,-1.99675
756.6,68.3449,-0.686008,-2.00134
759.3,68.6176,-0.721529,-2.00482
762,68.8898,-0.757598,-2.00809
764.7,69.161,-0.786274,-2.01113
767.4,69.4326,-0.832147,-2.01246
770.1,69.7042,-0.85742,-2.01935
772.8,69.974,-0.903313,-2.02155
775.5,70.2459,-0.933805,-2.02404
778.2,70.5157,-0.965948,-2.0267
780.9,70.789,-1.0047,-2.03196
783.6,71.0609,-1.01958,-2.03471
786.3,71.331,-1.05302,-2.03138
789,71.6042,-1.07201,-2.03342
791.7,71.8773,-1.10019,-2.03765
794.4,72.1486,-1.10918,-2.04085
797.1,72.4202,-1.11988,-2.04086
799.8,72.6934,-1.14564,-2.04195
802.5,72.9656,-1.17043,-2.0439
805.2,73.2393,-1.16799,-2.04415
807.9,73.5125,-1.19345,-2.04796
810.6,73.7859,-1.21369,-2.05194
813.3,74.0594,-1.23273,-2.05226
816,74.3339,-1.24763,-2.0535
818.7,74.6066,-1.27268,-2.05655
821.4,74.8821,-1.28284,-2.05789
824.1,75.1555,-1.29038,-2.0593
826.8,75.4306,-1.31802,-2.06062
829.5,75.7042,-1.32732,-2.06523
832.2,75.9803,-1.34611,-2.06194
834.9,76.2545,-1.35014,-2.06194
837.6,76.5298,-1.3435,-2.06589
840,76.7735,-1.34825,-2.06592