Folder: fsri_materials_database/01_Data/Helmet_Strap/STA/N2/30K_min

File: Helmet_Strap_STA_N2_30KData_250228_R1.csv
Temp./C,Time/min,DSC/(mW/mg),Mass loss/mg
60.0,0.0,1.1861,-0.0133959
62.7,0.162157,1.39149,-0.0148776
65.4,0.308142,1.56977,-0.0158066
68.1,0.443301,1.70619,-0.01605
70.8,0.57184,1.85742,-0.0152296
73.5,0.694504,1.97754,-0.0167468
76.2,0.813184,2.09795,-0.0145956
78.9,0.927763,2.1834,-0.0160466
81.6,1.04049,2.28192,-0.0177415
84.3,1.1496,2.36474,-0.0177845
87,1.25726,2.44478,-0.0187477
89.7,1.3624,2.5184,-0.0196236
92.4,1.46635,2.58666,-0.019729
95.1,1.5683,2.65036,-0.0188139
97.8,1.66885,2.71906,-0.0196034
100.5,1.76857,2.76258,-0.0193689
103.2,1.8667,2.80996,-0.020364
105.9,1.9648,2.85356,-0.0205924
108.6,2.06139,2.88062,-0.021378
111.3,2.15719,2.90306,-0.0206416
114,2.25286,2.91503,-0.0212423
116.7,2.34784,2.91709,-0.0206981
119.4,2.44228,2.92518,-0.0226049
122.1,2.53542,2.93071,-0.0232716
124.8,2.62848,2.92423,-0.0235197
127.5,2.72043,2.91837,-0.0247691
130.2,2.8111,2.91782,-0.0247098
132.9,2.90294,2.92486,-0.0260152
135.6,2.99334,2.93508,-0.0270058
138.3,3.08223,2.96231,-0.0261441
141,3.1717,2.98378,-0.0260184
143.7,3.26003,3.00009,-0.0260202
146.4,3.34809,3.03,-0.0250403
149.1,3.43578,3.06369,-0.0263492
151.8,3.5227,3.08651,-0.0263613
154.5,3.60986,3.11968,-0.0260207
157.2,3.69593,3.15423,-0.0260196
159.9,3.78226,3.194,-0.0272593
162.6,3.86722,3.22743,-0.0286568
165.3,3.95368,3.2636,-0.0289803
168,4.03953,3.29043,-0.0290521
170.7,4.12408,3.32191,-0.031619
173.4,4.20924,3.35659,-0.03162
176.1,4.29385,3.38382,-0.0316205
178.8,4.37757,3.41214,-0.0329404
181.5,4.46153,3.4481,-0.0329696
184.2,4.54515,3.47425,-0.03426
186.9,4.62808,3.50517,-0.03426
189.6,4.71115,3.53265,-0.0341863
192.3,4.79411,3.55969,-0.0362126
195,4.87638,3.58457,-0.0375499
197.7,4.95829,3.61626,-0.0375498
200.4,5.04057,3.64756,-0.0362302
203.1,5.1223,3.67103,-0.0375495
205.8,5.204,3.69724,-0.037218
208.5,5.28576,3.72306,-0.0372201
211.2,5.36737,3.74627,-0.0385394
213.9,5.44896,3.78142,-0.0411464
216.6,5.53038,3.82595,-0.0427092
219.3,5.61118,3.85299,-0.0452558
222,5.69248,3.91127,-0.0485252
224.7,5.77353,3.95852,-0.0498354
227.4,5.855,4.00239,-0.0526952
230.1,5.936,4.06523,-0.0527222
232.8,6.01663,4.11422,-0.0541764
235.5,6.09777,4.15642,-0.0539725
238.2,6.17815,4.1786,-0.0555702
240.9,6.25855,4.18196,-0.0566703
243.6,6.33791,4.16695,-0.0595411
246.3,6.41925,4.13592,-0.0656236
249,6.49911,4.11623,-0.0681089
251.7,6.57945,4.08581,-0.0681749
254.4,6.65971,4.07266,-0.0725968
257.1,6.73998,4.06375,-0.0779854
259.8,6.81974,4.06702,-0.0814778
262.5,6.89995,4.06718,-0.087973
265.2,6.98007,4.07226,-0.0925382
267.9,7.06053,4.07001,-0.100757
270.6,7.13955,4.07991,-0.107397
273.3,7.21999,4.07162,-0.114135
276,7.29995,4.06102,-0.122113
278.7,7.37954,4.06452,-0.130258
281.4,7.45991,4.0392,-0.138447
284.1,7.53995,4.02709,-0.144847
286.8,7.61993,4.01105,-0.151973
289.5,7.69961,3.97467,-0.15787
292.2,7.77964,3.92141,-0.165852
294.9,7.85968,3.88894,-0.173088
297.6,7.93954,3.92519,-0.181022
300.3,8.02004,4.00601,-0.189765
303,8.10032,4.08746,-0.196023
305.7,8.18079,4.14347,-0.204338
308.4,8.26147,4.19063,-0.211391
311.1,8.34175,4.21272,-0.216826
313.8,8.42194,4.21943,-0.21978
316.5,8.5025,4.20788,-0.224373
319.2,8.58283,4.20044,-0.228275
321.9,8.66271,4.16596,-0.230633
324.6,8.7429,4.12655,-0.234755
327.3,8.82356,4.09425,-0.240224
330,8.90408,4.05351,-0.242732
332.7,8.98424,4.02141,-0.245737
335.4,9.06492,3.97832,-0.248568
338.1,9.14545,3.94983,-0.250187
340.8,9.2258,3.9199,-0.252823
343.5,9.30661,3.89766,-0.255512
346.2,9.38733,3.88179,-0.258304
348.9,9.46827,3.87923,-0.262354
351.6,9.5494,3.87358,-0.263694
354.3,9.63059,3.86995,-0.264478
357,9.71145,3.87982,-0.267069
359.7,9.79238,3.88055,-0.269395
362.4,9.87368,3.89238,-0.272018
365.1,9.95503,3.91212,-0.275531
367.8,10.0367,3.92932,-0.277128
370.5,10.1184,3.9563,-0.279889
373.2,10.1997,3.97507,-0.278741
375.9,10.2815,4.00546,-0.278739
378.6,10.3632,4.05015,-0.28006
381.3,10.4454,4.09467,-0.281326
384,10.5275,4.15005,-0.285328
386.7,10.6093,4.21082,-0.286053
389.4,10.6917,4.28378,-0.287951
392.1,10.7742,4.35615,-0.289249
394.8,10.8565,4.42608,-0.291001
397.5,10.939,4.53063,-0.292751
400.2,11.0218,4.63973,-0.29323
402.9,11.1047,4.79297,-0.295435
405.6,11.1882,4.97479,-0.299754
408.3,11.2712,5.17723,-0.299707
411,11.3547,5.46566,-0.302408
413.7,11.4387,5.79818,-0.303772
416.4,11.5225,6.17049,-0.308055
419.1,11.6071,6.6246,-0.312693
421.8,11.6916,7.11401,-0.314504
424.5,11.7766,7.59125,-0.318559
427.2,11.861,8.01515,-0.323382
429.9,11.9452,8.31272,-0.327712
432.6,12.0288,8.44454,-0.332391
435.3,12.1118,8.3943,-0.339546
438,12.194,8.07873,-0.348717
440.7,12.2751,7.56191,-0.358401
443.4,12.357,6.92587,-0.371158
446.1,12.4381,6.34355,-0.384678
448.8,12.5198,5.95311,-0.396836
451.5,12.603,5.73227,-0.415082
454.2,12.6859,5.64632,-0.433172
456.9,12.769,5.63427,-0.456268
459.6,12.8533,5.66876,-0.481437
462.3,12.9372,5.72612,-0.507693
465,13.021,5.78464,-0.53712
467.7,13.1055,5.8339,-0.56863
470.4,13.1891,5.88314,-0.601709
473.1,13.2734,5.92092,-0.638902
475.8,13.3578,5.94338,-0.674538
478.5,13.4418,5.93634,-0.714392
481.2,13.5259,5.90272,-0.752917
483.9,13.6101,5.8385,-0.79533
486.6,13.6942,5.7535,-0.838296
489.3,13.7783,5.64157,-0.876445
492,13.8623,5.5159,-0.914839
494.7,13.9465,5.36109,-0.955525
497.4,14.0306,5.19793,-0.998328
500.1,14.1147,5.03139,-1.03878
502.8,14.1984,4.86984,-1.07836
505.5,14.2832,4.70657,-1.116
508.2,14.3677,4.55857,-1.15453
510.9,14.4522,4.40418,-1.19057
513.6,14.5365,4.26786,-1.22466
516.3,14.6217,4.13258,-1.25782
519,14.7065,4.00507,-1.29167
521.7,14.7913,3.89353,-1.32256
524.4,14.8763,3.78142,-1.35156
527.1,14.9611,3.67366,-1.37943
529.8,15.0466,3.57702,-1.40706
532.5,15.1317,3.48531,-1.43072
535.2,15.2172,3.39909,-1.45179
537.9,15.3025,3.3226,-1.47723
540.6,15.388,3.2465,-1.49813
543.3,15.4733,3.1759,-1.51809
546,15.5593,3.11354,-1.5373
548.7,15.645,3.05057,-1.5586
551.4,15.7304,2.98169,-1.57662
554.1,15.8162,2.91653,-1.59455
556.8,15.9022,2.86481,-1.61065
559.5,15.9882,2.80966,-1.62511
562.2,16.0742,2.74961,-1.63814
564.9,16.1602,2.69435,-1.65455
567.6,16.2461,2.62834,-1.67271
570.3,16.3325,2.55978,-1.68782
573,16.4184,2.48974,-1.70144
575.7,16.5049,2.41008,-1.7173
578.4,16.5908,2.33392,-1.73228
581.1,16.6772,2.26339,-1.74687
583.8,16.7636,2.19966,-1.75902
586.5,16.8504,2.12087,-1.77301
589.2,16.9367,2.05399,-1.78774
591.9,17.0232,1.98789,-1.80151
594.6,17.1094,1.91796,-1.81329
597.3,17.1967,1.84324,-1.8275
600,17.2834,1.79111,-1.83969
602.7,17.3698,1.71889,-1.85254
605.4,17.4568,1.66328,-1.86267
608.1,17.5438,1.63291,-1.87543
610.8,17.6307,1.60072,-1.88378
613.5,17.7179,1.56703,-1.89575
616.2,17.8043,1.55181,-1.90418
618.9,17.891,1.54842,-1.91485
621.6,17.9791,1.55133,-1.92426
624.3,18.0665,1.58508,-1.93379
627,18.1533,1.59639,-1.94277
629.7,18.241,1.63657,-1.95064
632.4,18.3289,1.66674,-1.9588
635.1,18.4163,1.69902,-1.96642
637.8,18.5036,1.72971,-1.97269
640.5,18.5915,1.77034,-1.97903
643.2,18.6791,1.793,-1.985
645.9,18.7667,1.81859,-1.9897
648.6,18.854,1.86617,-1.9964
651.3,18.9422,1.89816,-2.00434
654,19.0297,1.92475,-2.00855
656.7,19.1177,1.94405,-2.01673
659.4,19.2057,1.96787,-2.02043
662.1,19.2938,1.99184,-2.02501
664.8,19.3814,2.02135,-2.03073
667.5,19.4693,2.0357,-2.03681
670.2,19.5574,2.08038,-2.04033
672.9,19.6452,2.10704,-2.04229
675.6,19.7331,2.12347,-2.04666
678.3,19.8211,2.15851,-2.05261
681,19.9089,2.17558,-2.0537
683.7,19.9969,2.20634,-2.06185
686.4,20.0853,2.21955,-2.06725
689.1,20.1732,2.25405,-2.07216
691.8,20.2614,2.2835,-2.07588
694.5,20.3491,2.30037,-2.0785
697.2,20.4374,2.34201,-2.08093
699.9,20.5256,2.36721,-2.08558
702.6,20.6136,2.39539,-2.08857
705.3,20.7011,2.41671,-2.08846
708,20.7901,2.45327,-2.0918
710.7,20.8781,2.44526,-2.0957
713.4,20.9665,2.46462,-2.09932
716.1,21.0546,2.46521,-2.10417
718.8,21.1429,2.47744,-2.10706
721.5,21.2315,2.474,-2.11241
724.2,21.3195,2.46971,-2.11703
726.9,21.4079,2.44925,-2.11839
729.6,21.4963,2.45459,-2.12332
732.3,21.5848,2.4398,-2.12709
735,21.6736,2.42738,-2.13026
737.7,21.7618,2.4167,-2.13306
740.4,21.8505,2.41939,-2.13506
743.1,21.9393,2.3972,-2.13632
745.8,22.0278,2.37851,-2.14001
748.5,22.1165,2.35622,-2.14331
751.2,22.2053,2.33628,-2.14769
753.9,22.2937,2.28838,-2.15337
756.6,22.3824,2.2541,-2.15628
759.3,22.4712,2.21049,-2.16163
762,22.5604,2.15579,-2.16713
764.7,22.6488,2.11041,-2.1686
767.4,22.7377,2.06415,-2.17166
770.1,22.8266,2.00355,-2.17737
772.8,22.915,1.9372,-2.18368
775.5,23.004,1.87432,-2.18467
778.2,23.0927,1.81451,-2.18739
780.9,23.1816,1.75964,-2.18982
783.6,23.2706,1.69634,-2.19398
786.3,23.3595,1.62503,-2.19937
789,23.4484,1.56118,-2.20344
791.7,23.5375,1.51099,-2.20562
794.4,23.6265,1.24284,-2.20741
797.1,23.7155,1.15657,-2.21289
799.8,23.805,1.10379,-2.21295
802.5,23.8941,1.02918,-2.21285
805.2,23.9835,1.12357,-2.2143
807.9,24.0729,1.16476,-2.21706
810.6,24.1621,1.14592,-2.22003
813.3,24.2513,1.10426,-2.22538
816,24.3407,1.05205,-2.23078
818.7,24.4301,1.0277,-2.23296
821.4,24.5195,0.98238,-2.23401
824.1,24.609,0.92794,-2.23558
826.8,24.6985,0.910258,-2.23655
829.5,24.7884,0.89033,-2.23825
832.2,24.8781,0.875964,-2.23828
834.9,24.9678,0.860036,-2.24042
837.6,25.0576,0.84944,-2.24327
840,25.1374,0.84096,-2.24436

File: Helmet_Strap_STA_N2_30KData_250331_R2.csv
Temp./C,Time/min,DSC/(mW/mg),Mass loss/mg
60.0,0.0,1.21514,-0.00635132
62.7,0.15821,1.42304,-0.00699578
65.4,0.302593,1.61884,-0.00245396
68.1,0.436157,1.76394,-0.0111147
70.8,0.5634,1.9022,-0.0120586
73.5,0.685045,2.02482,-0.011818
76.2,0.802827,2.14408,-0.0124112
78.9,0.916858,2.23602,-0.0118735
81.6,1.02848,2.34878,-0.0128683
84.3,1.13726,2.43438,-0.0144065
87,1.24423,2.53565,-0.0125208
89.7,1.34934,2.63247,-0.0126262
92.4,1.45215,2.73206,-0.0141394
95.1,1.554,2.80831,-0.0139639
97.8,1.65406,2.88791,-0.0155541
100.5,1.75276,2.96748,-0.0176187
103.2,1.85119,3.01238,-0.0179344
105.9,1.94903,3.0532,-0.0201118
108.6,2.04563,3.09111,-0.0206542
111.3,2.14136,3.11162,-0.0204313
114,2.23642,3.1243,-0.0204138
116.7,2.33043,3.13092,-0.020416
119.4,2.42514,3.12437,-0.0204129
122.1,2.51842,3.1103,-0.0218349
124.8,2.61061,3.09847,-0.0224878
127.5,2.70255,3.08719,-0.0218393
130.2,2.79341,3.08832,-0.023165
132.9,2.88391,3.05002,-0.0243571
135.6,2.97396,3.08204,-0.0245132
138.3,3.06338,3.10041,-0.0245658
141,3.15205,3.12547,-0.0231598
143.7,3.2399,3.15109,-0.0244802
146.4,3.32783,3.19121,-0.023821
149.1,3.41496,3.22239,-0.0251445
151.8,3.50171,3.2676,-0.0244882
154.5,3.58823,3.28862,-0.0258
157.2,3.67443,3.33816,-0.0258
159.9,3.75987,3.37593,-0.0269259
162.6,3.84558,3.42483,-0.0271708
165.3,3.9308,3.46152,-0.02711
168,4.01573,3.50205,-0.02711
170.7,4.10024,3.52931,-0.02711
173.4,4.18506,3.57066,-0.0285238
176.1,4.26905,3.59683,-0.0304067
178.8,4.353,3.63605,-0.0310475
181.5,4.43629,3.67804,-0.0310616
184.2,4.51969,3.7168,-0.0336932
186.9,4.60332,3.73515,-0.0337
189.6,4.68535,3.77819,-0.0337266
192.3,4.76779,3.80121,-0.0363878
195,4.85004,3.84591,-0.0376777
197.7,4.93195,3.86308,-0.0403983
200.4,5.01431,3.89431,-0.040395
203.1,5.09595,3.92214,-0.041245
205.8,5.17705,3.94856,-0.0430381
208.5,5.25899,3.9736,-0.0443401
211.2,5.34061,3.99654,-0.0443554
213.9,5.42216,4.02661,-0.0446791
216.6,5.50313,4.05497,-0.0460086
219.3,5.58434,4.09297,-0.0486746
222,5.6654,4.13278,-0.0499347
224.7,5.74657,4.18449,-0.0526721
227.4,5.82757,4.24343,-0.054496
230.1,5.90862,4.31526,-0.0566244
232.8,5.98948,4.38248,-0.0578578
235.5,6.07012,4.44778,-0.060844
238.2,6.15098,4.49228,-0.0621407
240.9,6.23111,4.49374,-0.0628492
243.6,6.31159,4.48761,-0.0648393
246.3,6.39224,4.47697,-0.0691543
249,6.47223,4.45729,-0.0711229
251.7,6.5526,4.43263,-0.072453
254.4,6.63253,4.41884,-0.0775065
257.1,6.71267,4.39718,-0.0820095
259.8,6.79292,4.39851,-0.0855086
262.5,6.87314,4.39405,-0.0893695
265.2,6.95327,4.38779,-0.0942317
267.9,7.03309,4.35615,-0.0999669
270.6,7.11284,4.35061,-0.104551
273.3,7.19291,4.32754,-0.11193
276,7.27262,4.294,-0.118902
278.7,7.3525,4.25728,-0.125906
281.4,7.4325,4.20726,-0.132109
284.1,7.51224,4.17315,-0.139028
286.8,7.59224,4.1361,-0.144347
289.5,7.6722,4.0881,-0.153243
292.2,7.75206,4.02672,-0.159039
294.9,7.83187,3.95559,-0.1655
297.6,7.91208,3.97541,-0.173285
300.3,7.99253,4.04027,-0.179606
303,8.07291,4.14064,-0.185359
305.7,8.15378,4.21564,-0.19142
308.4,8.23394,4.2569,-0.197188
311.1,8.31445,4.29923,-0.201869
313.8,8.3948,4.30408,-0.207205
316.5,8.47497,4.31181,-0.209585
319.2,8.55538,4.28102,-0.21208
321.9,8.63581,4.27052,-0.216676
324.6,8.71586,4.23865,-0.219934
327.3,8.79598,4.20055,-0.222568
330,8.87692,4.16949,-0.223853
332.7,8.95734,4.15278,-0.22769
335.4,9.0381,4.11403,-0.22938
338.1,9.11889,4.09754,-0.231582
340.8,9.19947,4.0805,-0.233859
343.5,9.27964,4.07294,-0.235973
346.2,9.36117,4.05492,-0.238325
348.9,9.44217,4.06274,-0.238656
351.6,9.52329,4.05389,-0.239983
354.3,9.60412,4.05666,-0.241299
357,9.68531,4.06088,-0.242743
359.7,9.76665,4.0689,-0.243959
362.4,9.8483,4.08431,-0.245287
365.1,9.92979,4.10151,-0.247966
367.8,10.0114,4.11988,-0.249331
370.5,10.0923,4.15523,-0.252271
373.2,10.1748,4.17951,-0.255401
375.9,10.2565,4.20476,-0.25536
378.6,10.3388,4.2408,-0.256675
381.3,10.4208,4.27626,-0.25667
384,10.5029,4.32278,-0.256676
386.7,10.585,4.37469,-0.258985
389.4,10.6674,4.42898,-0.260292
392.1,10.7499,4.47766,-0.260028
394.8,10.8324,4.55262,-0.260291
397.5,10.9149,4.62042,-0.261534
400.2,10.998,4.72615,-0.264247
402.9,11.0808,4.84246,-0.265456
405.6,11.164,5.00726,-0.267162
408.3,11.2475,5.19192,-0.268488
411,11.3308,5.44563,-0.26969
413.7,11.4148,5.76864,-0.272484
416.4,11.4991,6.15356,-0.270959
419.1,11.5839,6.58706,-0.277356
421.8,11.6684,7.07773,-0.279816
424.5,11.7533,7.5528,-0.283883
427.2,11.838,7.94551,-0.287691
429.9,11.9221,8.16231,-0.2918
432.6,12.0057,8.20816,-0.294579
435.3,12.0885,8.04572,-0.300694
438,12.1707,7.7206,-0.306562
440.7,12.2528,7.22331,-0.314594
443.4,12.3343,6.68928,-0.323882
446.1,12.4164,6.22991,-0.336093
448.8,12.4989,5.90396,-0.349492
451.5,12.5819,5.75205,-0.361635
454.2,12.6653,5.69545,-0.378487
456.9,12.749,5.71202,-0.397506
459.6,12.8328,5.75864,-0.419126
462.3,12.9171,5.82099,-0.441816
465,13.001,5.87171,-0.467067
467.7,13.0853,5.93488,-0.49499
470.4,13.1699,5.9727,-0.524351
473.1,13.254,5.9928,-0.555545
475.8,13.3381,6.00868,-0.587872
478.5,13.4224,6.01081,-0.624201
481.2,13.5071,5.99931,-0.656234
483.9,13.5915,5.95382,-0.690475
486.6,13.6761,5.90472,-0.727553
489.3,13.7603,5.84325,-0.764271
492,13.8449,5.7352,-0.799349
494.7,13.929,5.62324,-0.833
497.4,14.0136,5.48597,-0.867085
500.1,14.0981,5.35599,-0.899974
502.8,14.1826,5.19032,-0.928955
505.5,14.2668,5.03103,-0.96052
508.2,14.3516,4.86963,-0.987683
510.9,14.4364,4.71979,-1.01342
513.6,14.5206,4.5961,-1.03979
516.3,14.6061,4.46756,-1.06388
519,14.6909,4.36397,-1.08566
521.7,14.7762,4.28827,-1.10813
524.4,14.8613,4.208,-1.12977
527.1,14.947,4.13586,-1.15157
529.8,15.0323,4.06591,-1.17211
532.5,15.1178,4.00677,-1.1923
535.2,15.2034,3.95146,-1.21206
537.9,15.2892,3.8976,-1.23158
540.6,15.3752,3.86401,-1.25045
543.3,15.4607,3.82373,-1.26836
546,15.5469,3.79808,-1.28488
548.7,15.6325,3.76202,-1.30721
551.4,15.7189,3.72007,-1.32406
554.1,15.8049,3.68536,-1.34274
556.8,15.8908,3.64879,-1.35947
559.5,15.977,3.60103,-1.37495
562.2,16.0633,3.5507,-1.3954
564.9,16.1495,3.50274,-1.41276
567.6,16.2356,3.45391,-1.4324
570.3,16.322,3.4033,-1.4486
573,16.4081,3.34969,-1.46561
575.7,16.4944,3.29648,-1.48016
578.4,16.5812,3.2277,-1.49725
581.1,16.6676,3.16883,-1.513
583.8,16.7542,3.09823,-1.52906
586.5,16.8406,3.04449,-1.54422
589.2,16.9271,2.98488,-1.55927
591.9,17.0139,2.92007,-1.57483
594.6,17.1006,2.85289,-1.58865
597.3,17.1874,2.80041,-1.60133
600,17.2745,2.72911,-1.61605
602.7,17.3611,2.68942,-1.6241
605.4,17.4485,2.65185,-1.6407
608.1,17.5352,2.62715,-1.65358
610.8,17.6227,2.61163,-1.66434
613.5,17.7098,2.59872,-1.67198
616.2,17.797,2.58099,-1.68167
618.9,17.8841,2.57624,-1.69176
621.6,17.9715,2.56611,-1.69967
624.3,18.059,2.55189,-1.71046
627,18.1463,2.55846,-1.72024
629.7,18.2338,2.55452,-1.72749
632.4,18.3211,2.5764,-1.73594
635.1,18.4089,2.61208,-1.74473
637.8,18.4966,2.6276,-1.75494
640.5,18.5841,2.65012,-1.75885
643.2,18.6715,2.68072,-1.76464
645.9,18.7594,2.71243,-1.77164
648.6,18.8472,2.73863,-1.7785
651.3,18.935,2.76588,-1.78646
654,19.0226,2.78821,-1.79396
656.7,19.1097,2.81799,-1.7984
659.4,19.1983,2.84069,-1.80154
662.1,19.2859,2.86414,-1.80509
664.8,19.3737,2.87477,-1.81001
667.5,19.4617,2.88027,-1.81544
670.2,19.5494,2.88947,-1.8205
672.9,19.6369,2.89801,-1.82567
675.6,19.7246,2.91402,-1.83321
678.3,19.8127,2.90915,-1.83314
681,19.9004,2.91321,-1.83657
683.7,19.9879,2.92265,-1.84232
686.4,20.0756,2.92749,-1.84643
689.1,20.1635,2.9161,-1.84841
691.8,20.2512,2.9035,-1.85412
694.5,20.3393,2.89575,-1.86296
697.2,20.4268,2.8692,-1.86445
699.9,20.5147,2.84804,-1.86814
702.6,20.6024,2.83411,-1.87014
705.3,20.6903,2.81492,-1.87593
708,20.7784,2.7884,-1.88126
710.7,20.8664,2.75029,-1.8843
713.4,20.9542,2.72627,-1.88699
716.1,21.0423,2.66341,-1.88958
718.8,21.1301,2.63203,-1.89843
721.5,21.2186,2.59292,-1.89772
724.2,21.3063,2.54707,-1.89944
726.9,21.3946,2.51093,-1.90395
729.6,21.4829,2.4658,-1.90982
732.3,21.571,2.40953,-1.91312
735,21.6594,2.34896,-1.91722
737.7,21.7478,2.30003,-1.92102
740.4,21.8363,2.2298,-1.92525
743.1,21.9246,2.17436,-1.93007
745.8,22.0133,2.10708,-1.93322
748.5,22.1016,2.04654,-1.93446
751.2,22.1901,1.97738,-1.9382
753.9,22.2786,1.8947,-1.94425
756.6,22.3669,1.8206,-1.94891
759.3,22.4556,1.75648,-1.95474
762,22.5441,1.68933,-1.95755
764.7,22.6325,1.61036,-1.95919
767.4,22.7211,1.51963,-1.96243
770.1,22.8095,1.44043,-1.96726
772.8,22.8982,1.36477,-1.97148
775.5,22.9866,1.28561,-1.97651
778.2,23.0753,1.21427,-1.98004
780.9,23.1638,1.12539,-1.98254
783.6,23.2527,1.04745,-1.9856
786.3,23.3411,0.979982,-1.98757
789,23.4296,0.895796,-1.99165
791.7,23.5187,0.82446,-1.99473
794.4,23.6077,0.780267,-1.99597
797.1,23.6968,0.707593,-2.00073
799.8,23.7856,0.647269,-1.99944
802.5,23.8748,0.601781,-2.01115
805.2,23.9641,0.551041,-2.01337
807.9,24.0531,0.509711,-2.01253
810.6,24.1424,0.466628,-2.01253
813.3,24.2319,0.450827,-2.01253
816,24.321,0.401901,-2.01397
818.7,24.4104,0.360762,-2.02006
821.4,24.4997,0.335938,-2.02281
824.1,24.5891,0.307686,-2.02481
826.8,24.6788,0.278012,-2.02644
829.5,24.7685,0.254275,-2.02838
832.2,24.8581,0.203903,-2.02424
834.9,24.9475,0.177113,-2.03578
837.6,25.0372,0.154205,-2.03582
840,25.117,0.135837,-2.03579