Folder: fsri_materials_database/01_Data/Helmet_Strap/STA/N2/30K_min (part 2)

File: Helmet_Strap_STA_N2_30KData_250401_R3.csv
Temp./C,Time/min,DSC/(mW/mg),Mass loss/mg
60.0,0.0,1.15767,-0.00840799
62.7,0.158641,1.35239,-0.00505164
65.4,0.303119,1.51122,-0.00762764
68.1,0.437044,1.66076,-0.00558335
70.8,0.56405,1.79042,-0.00798172
73.5,0.686066,1.91325,-0.0072802
76.2,0.803,2.01972,-0.00869104
78.9,0.917468,2.11783,-0.0108719
81.6,1.02756,2.19858,-0.00966336
84.3,1.1373,2.28579,-0.00981808
87,1.24306,2.37125,-0.0103817
89.7,1.34934,2.45305,-0.00983806
92.4,1.45151,2.53103,-0.0106355
95.1,1.55364,2.6043,-0.0131871
97.8,1.65391,2.66268,-0.0182119
100.5,1.75277,2.7154,-0.0169322
103.2,1.85055,2.76803,-0.0168255
105.9,1.94793,2.80068,-0.0137347
108.6,2.04436,2.81597,-0.0140111
111.3,2.1401,2.82481,-0.0146108
114,2.23537,2.82581,-0.0170357
116.7,2.32978,2.81293,-0.0164056
119.4,2.42341,2.79866,-0.0176551
122.1,2.5164,2.78375,-0.0190949
124.8,2.60832,2.77412,-0.0164948
127.5,2.70036,2.76095,-0.0181179
130.2,2.79183,2.75236,-0.020482
132.9,2.88208,2.75938,-0.0204299
135.6,2.97222,2.77555,-0.0191187
138.3,3.06129,2.77994,-0.0191063
141,3.14984,2.80573,-0.0190996
143.7,3.23843,2.83469,-0.0217461
146.4,3.32574,2.85671,-0.0230603
149.1,3.41325,2.89031,-0.0230487
151.8,3.50006,2.91565,-0.0231002
154.5,3.58675,2.94473,-0.0191272
157.2,3.67299,2.9688,-0.02042
159.9,3.75855,3.00548,-0.0218196
162.6,3.84412,3.03891,-0.0188658
165.3,3.92969,3.07192,-0.0244571
168,4.01384,3.10404,-0.0258055
170.7,4.09925,3.12975,-0.0257701
173.4,4.18413,3.15325,-0.0261413
176.1,4.26813,3.17527,-0.0250185
178.8,4.35189,3.20484,-0.02613
181.5,4.43577,3.22203,-0.02613
184.2,4.51896,3.24907,-0.0274442
186.9,4.60161,3.27697,-0.0296429
189.6,4.68445,3.30171,-0.0297609
192.3,4.76674,3.32473,-0.0310703
195,4.84917,3.3486,-0.0323901
197.7,4.93153,3.36586,-0.0337032
200.4,5.01286,3.38741,-0.0350299
203.1,5.09472,3.40301,-0.03503
205.8,5.17634,3.42038,-0.0366709
208.5,5.25782,3.44862,-0.0379854
211.2,5.33948,3.47882,-0.0402791
213.9,5.42045,3.49902,-0.041871
216.6,5.5018,3.52182,-0.0420391
219.3,5.58306,3.54664,-0.0446592
222,5.66414,3.59102,-0.0455444
224.7,5.74516,3.63204,-0.0473261
227.4,5.82614,3.68437,-0.0493524
230.1,5.90721,3.75267,-0.0527654
232.8,5.98808,3.82073,-0.0543444
235.5,6.0689,3.88303,-0.0578268
238.2,6.14957,3.91999,-0.0599494
240.9,6.23002,3.93467,-0.0606249
243.6,6.31019,3.91749,-0.0635582
246.3,6.39064,3.90543,-0.0658696
249,6.47075,3.89149,-0.0673719
251.7,6.55116,3.86324,-0.0725893
254.4,6.63036,3.83975,-0.0779763
257.1,6.71123,3.83609,-0.0835581
259.8,6.79049,3.81867,-0.0866745
262.5,6.87122,3.80284,-0.0902892
265.2,6.95143,3.78617,-0.094762
267.9,7.03101,3.76966,-0.0996936
270.6,7.11091,3.76334,-0.103764
273.3,7.19063,3.7241,-0.108949
276,7.27046,3.6904,-0.117171
278.7,7.35045,3.65884,-0.121573
281.4,7.4295,3.60631,-0.127094
284.1,7.50998,3.56158,-0.133322
286.8,7.58991,3.51193,-0.141919
289.5,7.67012,3.46102,-0.152307
292.2,7.74988,3.40211,-0.161714
294.9,7.82996,3.3256,-0.165816
297.6,7.91014,3.33966,-0.172773
300.3,7.99052,3.42053,-0.179657
303,8.07077,3.51492,-0.187762
305.7,8.15146,3.59231,-0.194605
308.4,8.2322,3.6388,-0.199773
311.1,8.31197,3.66461,-0.206206
313.8,8.39341,3.66815,-0.210882
316.5,8.47346,3.65976,-0.216276
319.2,8.55359,3.63994,-0.220487
321.9,8.6342,3.62267,-0.223193
324.6,8.71495,3.58711,-0.224727
327.3,8.79522,3.55557,-0.224691
330,8.87596,3.50582,-0.223788
332.7,8.95635,3.47767,-0.22834
335.4,9.03679,3.4479,-0.236584
338.1,9.11751,3.431,-0.23956
340.8,9.19841,3.41545,-0.24075
343.5,9.27946,3.40305,-0.241159
346.2,9.36028,3.39721,-0.243688
348.9,9.44141,3.39065,-0.245075
351.6,9.52224,3.39392,-0.247076
354.3,9.6033,3.39713,-0.248554
357,9.68456,3.3894,-0.250785
359.7,9.76608,3.39549,-0.253159
362.4,9.84735,3.40141,-0.2561
365.1,9.92892,3.43738,-0.259769
367.8,10.0104,3.4351,-0.2592
370.5,10.0919,3.44555,-0.260467
373.2,10.1737,3.48259,-0.260605
375.9,10.2557,3.51655,-0.262838
378.6,10.3376,3.56095,-0.263129
381.3,10.4192,3.60226,-0.267202
384,10.5012,3.65323,-0.26842
386.7,10.5833,3.71947,-0.268417
389.4,10.6659,3.78404,-0.269594
392.1,10.7482,3.85581,-0.268726
394.8,10.8306,3.92616,-0.2681
397.5,10.913,4.00827,-0.268542
400.2,10.9958,4.11454,-0.269411
402.9,11.0785,4.25624,-0.272284
405.6,11.1618,4.4295,-0.2763
408.3,11.2451,4.63649,-0.279325
411,11.3285,4.90545,-0.280332
413.7,11.4122,5.22896,-0.280774
416.4,11.4964,5.62282,-0.281804
419.1,11.5809,6.07519,-0.28468
421.8,11.6657,6.58007,-0.289397
424.5,11.7504,7.07949,-0.291018
427.2,11.8355,7.49168,-0.295427
429.9,11.9192,7.72912,-0.300412
432.6,12.0027,7.77335,-0.306418
435.3,12.0858,7.61878,-0.313603
438,12.1679,7.28013,-0.318649
440.7,12.2499,6.79147,-0.324459
443.4,12.3313,6.24309,-0.333061
446.1,12.4134,5.78187,-0.341476
448.8,12.4962,5.47013,-0.356503
451.5,12.579,5.294,-0.373302
454.2,12.6626,5.23243,-0.389955
456.9,12.7461,5.24756,-0.41158
459.6,12.8304,5.29957,-0.433289
462.3,12.9146,5.35228,-0.457386
465,12.9989,5.42889,-0.482622
467.7,13.0831,5.46867,-0.509483
470.4,13.1677,5.51218,-0.54303
473.1,13.2521,5.53353,-0.574728
475.8,13.3367,5.54018,-0.608075
478.5,13.421,5.53862,-0.643103
481.2,13.5056,5.52034,-0.679386
483.9,13.5897,5.479,-0.717501
486.6,13.6744,5.4177,-0.753176
489.3,13.7587,5.33591,-0.79039
492,13.8435,5.24635,-0.828813
494.7,13.9276,5.13161,-0.862515
497.4,14.0124,4.99322,-0.894756
500.1,14.0967,4.84409,-0.928885
502.8,14.1812,4.68497,-0.963269
505.5,14.2657,4.5291,-0.98986
508.2,14.3503,4.3754,-1.0186
510.9,14.4353,4.23802,-1.04354
513.6,14.52,4.11062,-1.07021
516.3,14.6047,3.97199,-1.09473
519,14.6899,3.86637,-1.11994
521.7,14.775,3.76164,-1.14448
524.4,14.8605,3.68437,-1.16509
527.1,14.9458,3.61638,-1.18528
529.8,15.0315,3.54187,-1.20544
532.5,15.117,3.49657,-1.22529
535.2,15.2022,3.45748,-1.24244
537.9,15.2884,3.40461,-1.2616
540.6,15.374,3.35959,-1.28028
543.3,15.4602,3.33224,-1.301
546,15.5461,3.28909,-1.32326
548.7,15.6321,3.25412,-1.34091
551.4,15.7183,3.21936,-1.36174
554.1,15.8045,3.17699,-1.37922
556.8,15.8903,3.14019,-1.39706
559.5,15.9765,3.09545,-1.41448
562.2,16.0628,3.04398,-1.43304
564.9,16.149,2.99038,-1.45224
567.6,16.235,2.93612,-1.46664
570.3,16.3216,2.869,-1.48409
573,16.4081,2.81127,-1.50114
575.7,16.4946,2.75176,-1.51534
578.4,16.5811,2.68108,-1.53204
581.1,16.6675,2.60664,-1.54961
583.8,16.7543,2.52743,-1.56578
586.5,16.8409,2.44787,-1.57686
589.2,16.9274,2.3603,-1.59834
591.9,17.0144,2.28603,-1.61345
594.6,17.101,2.20593,-1.62966
597.3,17.1881,2.134,-1.64376
600,17.2746,2.0755,-1.65125
602.7,17.3616,2.01174,-1.67145
605.4,17.4491,1.95011,-1.68562
608.1,17.5359,1.8965,-1.69487
610.8,17.6229,1.86114,-1.70474
613.5,17.7104,1.83591,-1.71605
616.2,17.7977,1.82097,-1.73177
618.9,17.8849,1.81015,-1.74001
621.6,17.9713,1.79428,-1.74869
624.3,18.0596,1.7951,-1.75727
627,18.1474,1.81963,-1.76462
629.7,18.2347,1.83649,-1.77358
632.4,18.3222,1.8587,-1.78306
635.1,18.41,1.88782,-1.79237
637.8,18.4976,1.92473,-1.79635
640.5,18.5855,1.96704,-1.80186
643.2,18.6732,2.01021,-1.80989
645.9,18.7608,2.03907,-1.81662
648.6,18.8486,2.07443,-1.82425
651.3,18.9358,2.10916,-1.83294
654,19.0238,2.1339,-1.8379
656.7,19.1118,2.18606,-1.84291
659.4,19.1997,2.22399,-1.84945
662.1,19.2877,2.2683,-1.85419
664.8,19.3755,2.27631,-1.85851
667.5,19.4633,2.31592,-1.86372
670.2,19.5514,2.34147,-1.87067
672.9,19.639,2.37001,-1.87485
675.6,19.7269,2.37685,-1.87748
678.3,19.8153,2.39905,-1.87975
681,19.9031,2.41655,-1.88632
683.7,19.9912,2.43699,-1.89233
686.4,20.0788,2.44857,-1.89334
689.1,20.1671,2.47216,-1.89855
691.8,20.2554,2.4731,-1.90494
694.5,20.3435,2.48224,-1.91067
697.2,20.4313,2.48873,-1.91216
699.9,20.5196,2.48355,-1.91397
702.6,20.6074,2.48327,-1.91876
705.3,20.696,2.48487,-1.92021
708,20.7845,2.49587,-1.92389
710.7,20.8727,2.49085,-1.92898
713.4,20.9614,2.49378,-1.93073
716.1,21.0499,2.45722,-1.93604
718.8,21.1382,2.43144,-1.94149
721.5,21.2266,2.4028,-1.9479
724.2,21.315,2.38962,-1.95093
726.9,21.4027,2.37236,-1.95279
729.6,21.4921,2.3552,-1.95903
732.3,21.5804,2.32101,-1.96617
735,21.6691,2.29432,-1.96852
737.7,21.7575,2.25541,-1.96919
740.4,21.8458,2.22416,-1.97346
743.1,21.9344,2.1735,-1.97534
745.8,22.0229,2.11645,-1.97942
748.5,22.1113,2.06903,-1.98141
751.2,22.1997,2.0108,-1.98487
753.9,22.2881,1.922,-1.99031
756.6,22.3768,1.86455,-1.99629
759.3,22.4656,1.78283,-1.99681
762,22.5543,1.70922,-2.00317
764.7,22.6427,1.63542,-2.00976
767.4,22.7315,1.56057,-2.01429
770.1,22.8203,1.47003,-2.01939
772.8,22.9093,1.36693,-2.02044
775.5,22.9984,1.2902,-2.01942
778.2,23.0871,1.19895,-2.02323
780.9,23.1761,1.0995,-2.02685
783.6,23.2651,1.02799,-2.03156
786.3,23.3542,0.970804,-2.03652
789,23.4434,0.879891,-2.04212
791.7,23.5323,0.797736,-2.04624
794.4,23.6216,0.715241,-2.04869
797.1,23.7108,0.653864,-2.05021
799.8,23.7999,0.601477,-2.05366
802.5,23.8893,0.541139,-2.05512
805.2,23.9789,0.460717,-2.05777
807.9,24.0681,0.417841,-2.06102
810.6,24.1574,0.360829,-2.06451
813.3,24.2468,0.308278,-2.06535
816,24.3362,0.258443,-2.06666
818.7,24.4257,0.225534,-2.0692
821.4,24.5153,0.172428,-2.07015
824.1,24.6051,0.142235,-2.07092
826.8,24.6948,0.123239,-2.07095
829.5,24.7844,0.0793766,-2.07508
832.2,24.8745,0.0528662,-2.078
834.9,24.9641,0.0269947,-2.08161
837.6,25.0544,0.00331004,-2.08302
840,25.1341,-0.023145,-2.08128

File: Helmet_Strap_STA_N2_30KData_250603_R4.csv
Temp./C,Time/min,DSC/(mW/mg),Mass loss/mg
40.0,0.0,1.09842,-0.0412578
42.7,0.162174,1.31131,-0.0433282
45.4,0.306991,1.51298,-0.0450582
48.1,0.447012,1.69671,-0.0465567
50.8,0.57754,1.89956,-0.0483434
53.5,0.702689,2.08165,-0.0503712
56.2,0.822243,2.28329,-0.0526841
58.9,0.939762,2.4921,-0.0555234
61.6,1.05277,2.71394,-0.0566473
64.3,1.16441,2.94285,-0.060983
67,1.27401,3.16622,-0.0644258
69.7,1.38237,3.40016,-0.0681526
72.4,1.48887,3.61541,-0.0715799
75.1,1.59471,3.83937,-0.0762378
77.8,1.69837,4.01584,-0.0804019
80.5,1.80085,4.18737,-0.0850686
83.2,1.90198,4.32205,-0.0889669
85.9,2.00169,4.41053,-0.0931121
88.6,2.10015,4.48112,-0.098263
91.3,2.19757,4.49445,-0.102326
94,2.29334,4.47019,-0.108042
96.7,2.38772,4.42239,-0.112189
99.4,2.4807,4.33101,-0.116945
102.1,2.57455,4.22118,-0.120864
104.8,2.66691,4.08661,-0.123502
107.5,2.75866,3.93604,-0.126137
110.2,2.84998,3.76977,-0.129801
112.9,2.94042,3.60365,-0.132734
115.6,3.03104,3.42135,-0.13276
118.3,3.12067,3.24915,-0.13677
121,3.20988,3.08347,-0.136835
123.7,3.2989,2.94518,-0.138
126.4,3.38746,2.81349,-0.139198
129.1,3.47504,2.71546,-0.139363
131.8,3.56272,2.629,-0.139969
134.5,3.64949,2.55348,-0.141112
137.2,3.73569,2.52519,-0.14195
139.9,3.82283,2.48481,-0.14064
142.6,3.90892,2.47255,-0.141163
145.3,3.99413,2.47664,-0.140642
148,4.07923,2.49499,-0.140641
150.7,4.1642,2.50615,-0.141949
153.4,4.24866,2.52587,-0.14195
156.1,4.33298,2.54538,-0.142944
158.8,4.41735,2.56499,-0.142578
161.5,4.50136,2.57689,-0.14261
164.2,4.58524,2.61364,-0.14261
166.9,4.66837,2.63988,-0.142522
169.6,4.75206,2.66197,-0.143941
172.3,4.83479,2.70842,-0.14524
175,4.9175,2.73693,-0.14524
177.7,5.00028,2.76385,-0.145557
180.4,5.0824,2.79202,-0.14689
183.1,5.16475,2.81043,-0.14689
185.8,5.24664,2.83359,-0.148185
188.5,5.32763,2.86034,-0.148094
191.2,5.4097,2.87012,-0.149529
193.9,5.49053,2.89088,-0.150839
196.6,5.57183,2.91741,-0.152188
199.3,5.65272,2.93474,-0.152831
202,5.7336,2.95324,-0.153482
204.7,5.81403,2.96169,-0.155392
207.4,5.89504,2.9902,-0.156127
210.1,5.97544,3.004,-0.158036
212.8,6.05567,3.02912,-0.159391
215.5,6.13617,3.04305,-0.160718
218.2,6.21649,3.05329,-0.162018
220.9,6.29682,3.0884,-0.164025
223.6,6.37686,3.11598,-0.164677
226.3,6.45756,3.15937,-0.165999
229,6.53765,3.22755,-0.168713
231.7,6.61776,3.27886,-0.170465
234.4,6.6979,3.34768,-0.173111
237.1,6.77821,3.38969,-0.173746
239.8,6.85786,3.43252,-0.17581
242.5,6.93708,3.44071,-0.177416
245.2,7.01791,3.43031,-0.179966
247.9,7.09711,3.42449,-0.181691
250.6,7.17679,3.41006,-0.185701
253.3,7.25661,3.4001,-0.188573
256,7.33632,3.37394,-0.19129
258.7,7.4155,3.3649,-0.195323
261.4,7.49557,3.34589,-0.199664
264.1,7.57508,3.33052,-0.203241
266.8,7.65463,3.31134,-0.208818
269.5,7.7343,3.29578,-0.213966
272.2,7.81413,3.25925,-0.219754
274.9,7.89368,3.23315,-0.226973
277.6,7.97286,3.19126,-0.233241
280.3,8.05255,3.13749,-0.238824
283,8.13198,3.09653,-0.245063
285.7,8.21182,3.05769,-0.252356
288.4,8.29146,3.00301,-0.259471
291.1,8.37114,2.97293,-0.265483
293.8,8.45067,2.9047,-0.272725
296.5,8.53071,2.86072,-0.279421
299.2,8.61095,2.87411,-0.286991
301.9,8.69104,2.94171,-0.292234
304.6,8.77125,3.02473,-0.297334
307.3,8.85163,3.07332,-0.303669
310,8.93188,3.11466,-0.309358
312.7,9.01172,3.13876,-0.314619
315.4,9.09195,3.14016,-0.31763
318.1,9.17244,3.12734,-0.32137
320.8,9.25286,3.10542,-0.324223
323.5,9.33295,3.08011,-0.328501
326.2,9.41327,3.04397,-0.329931
328.9,9.49367,3.01011,-0.33264
331.6,9.57408,2.97719,-0.336028
334.3,9.65454,2.93825,-0.338133
337,9.73503,2.9168,-0.340159
339.7,9.81559,2.89545,-0.342087
342.4,9.89639,2.87573,-0.344778
345.1,9.97729,2.86073,-0.345155
347.8,10.0575,2.8519,-0.347109
350.5,10.1391,2.84983,-0.349113
353.2,10.2202,2.83962,-0.350462
355.9,10.3013,2.85542,-0.353034
358.6,10.3826,2.85167,-0.354381
361.3,10.4641,2.85775,-0.3557
364,10.5453,2.86521,-0.357003
366.7,10.6267,2.87781,-0.358342
369.4,10.708,2.90976,-0.36064
372.1,10.7899,2.93607,-0.362069
374.8,10.8722,2.97509,-0.36195
377.5,10.9542,3.01097,-0.363269
380.2,11.0362,3.04958,-0.364556
382.9,11.1182,3.10696,-0.365928
385.6,11.2004,3.1595,-0.367219
388.3,11.2827,3.21796,-0.368539
391,11.3651,3.29241,-0.368545
393.7,11.4476,3.37582,-0.369766
396.4,11.5303,3.465,-0.372169
399.1,11.6133,3.56917,-0.372491
401.8,11.6961,3.69738,-0.373935
404.5,11.7795,3.85111,-0.375064
407.2,11.863,4.0691,-0.376394
409.9,11.9466,4.32411,-0.377776
412.6,12.0303,4.63722,-0.380206
415.3,12.1148,5.01925,-0.381714
418,12.1993,5.46794,-0.38471
420.7,12.2844,5.97012,-0.387867
423.4,12.3695,6.48909,-0.391288
426.1,12.454,6.90996,-0.394457
428.8,12.5387,7.18125,-0.398697
431.5,12.6222,7.22695,-0.404023
434.2,12.7053,7.07357,-0.411633
436.9,12.7879,6.73085,-0.417515
439.6,12.8698,6.25095,-0.425633
442.3,12.9518,5.69534,-0.434531
445,13.0339,5.2096,-0.44576
447.7,13.1156,4.88615,-0.45844
450.4,13.1995,4.69497,-0.473327
453.1,13.2829,4.62386,-0.489464
455.8,13.367,4.62738,-0.509688
458.5,13.4508,4.67335,-0.529475
461.2,13.5356,4.72865,-0.552303
463.9,13.6202,4.79164,-0.578522
466.6,13.7046,4.84018,-0.605203
469.3,13.7891,4.88654,-0.634462
472,13.874,4.91338,-0.667383
474.7,13.9588,4.94034,-0.701084
477.4,14.0434,4.94598,-0.73475
480.1,14.1281,4.93659,-0.770075
482.8,14.2126,4.90954,-0.80576
485.5,14.2977,4.84755,-0.841069
488.2,14.3824,4.78011,-0.87768
490.9,14.4673,4.69244,-0.912492
493.6,14.552,4.57758,-0.949854
496.3,14.6369,4.46113,-0.984471
499,14.7217,4.34158,-1.01822
501.7,14.8066,4.18279,-1.05082
504.4,14.8918,4.03487,-1.08031
507.1,14.9765,3.89815,-1.11046
509.8,15.0612,3.74887,-1.13893
512.5,15.1472,3.62297,-1.16515
515.2,15.2323,3.50056,-1.19076
517.9,15.318,3.39137,-1.21576
520.6,15.4035,3.28117,-1.23952
523.3,15.4887,3.1919,-1.26155
526,15.5745,3.10312,-1.28227
528.7,15.6603,3.03282,-1.30293
531.4,15.7463,2.96901,-1.32949
534.1,15.8324,2.91045,-1.34264
536.8,15.9184,2.86093,-1.36194
539.5,16.0048,2.80655,-1.38139
542.2,16.0909,2.75187,-1.40072
544.9,16.1764,2.71451,-1.41911
547.6,16.2639,2.6529,-1.43862
550.3,16.3495,2.61497,-1.458
553,16.4365,2.56966,-1.47415
555.7,16.523,2.52871,-1.49251
558.4,16.6093,2.47946,-1.51066
561.1,16.6961,2.42542,-1.52779
563.8,16.7832,2.38256,-1.54589
566.5,16.8692,2.33371,-1.56538
569.2,16.9565,2.27419,-1.58354
571.9,17.0431,2.21812,-1.60055
574.6,17.1301,2.16015,-1.61639
577.3,17.2169,2.09523,-1.63463
580,17.3035,2.041,-1.65142
582.7,17.3909,1.96698,-1.66919
585.4,17.4775,1.90275,-1.68479
588.1,17.5645,1.83612,-1.70033
590.8,17.6515,1.75709,-1.71683
593.5,17.7389,1.68209,-1.73197
596.2,17.8259,1.60618,-1.74703
598.9,17.913,1.5505,-1.76065
601.6,18.0005,1.49153,-1.77462
604.3,18.0881,1.44157,-1.78788
607,18.1752,1.38674,-1.80588
609.7,18.263,1.34389,-1.80837
612.4,18.3509,1.31815,-1.81982
615.1,18.4383,1.29863,-1.83204
617.8,18.5262,1.29022,-1.84313
620.5,18.614,1.27663,-1.85528
623.2,18.7021,1.28936,-1.86491
625.9,18.7899,1.29802,-1.87455
628.6,18.8781,1.31836,-1.88497
631.3,18.9661,1.3479,-1.89293
634,19.0544,1.36812,-1.89931
636.7,19.1424,1.40996,-1.90939
639.4,19.2308,1.44983,-1.91652
642.1,19.3187,1.48657,-1.92433
644.8,19.4066,1.54079,-1.93136
647.5,19.4956,1.58507,-1.93789
650.2,19.5837,1.62972,-1.94519
652.9,19.6717,1.67238,-1.95195
655.6,19.7609,1.72697,-1.95788
658.3,19.8483,1.76894,-1.96352
661,19.9376,1.81551,-1.96826
663.7,20.0255,1.85347,-1.97343
666.4,20.1147,1.89638,-1.98016
669.1,20.2033,1.93299,-1.9839
671.8,20.2919,1.98134,-1.98807
674.5,20.3801,2.02324,-1.99161
677.2,20.4692,2.05173,-1.9986
679.9,20.5572,2.0914,-2.00322
682.6,20.6459,2.11833,-2.00614
685.3,20.7347,2.15379,-2.01069
688,20.8233,2.1907,-2.01456
690.7,20.9117,2.20763,-2.01791
693.4,21,2.22777,-2.02272
696.1,21.0888,2.2562,-2.02662
698.8,21.1776,2.27616,-2.03154
701.5,21.2661,2.29198,-2.03631
704.2,21.3549,2.30568,-2.0385
706.9,21.4434,2.31734,-2.04391
709.6,21.5325,2.33589,-2.04504
712.3,21.6213,2.33834,-2.04893
715,21.7102,2.35124,-2.05505
717.7,21.7991,2.37329,-2.0579
720.4,21.888,2.36582,-2.06136
723.1,21.9766,2.355,-2.06619
725.8,22.0659,2.34729,-2.06774
728.5,22.1548,2.34495,-2.07237
731.2,22.2435,2.32318,-2.0771
733.9,22.3328,2.29964,-2.07955
736.6,22.4211,2.27088,-2.08482
739.3,22.5105,2.25154,-2.08807
742,22.5995,2.22582,-2.09303
744.7,22.6887,2.19723,-2.09607
747.4,22.7778,2.1603,-2.09917
750.1,22.8664,2.11942,-2.10325
752.8,22.9553,2.09296,-2.1086
755.5,23.0446,2.04193,-2.11298
758.2,23.1335,2.00154,-2.1168
760.9,23.2226,1.97235,-2.1211
763.6,23.3115,1.92303,-2.12526
766.3,23.4007,1.87901,-2.12726
769,23.4898,1.84373,-2.13312
771.7,23.579,1.81584,-2.13625
774.4,23.6683,1.78689,-2.13991
777.1,23.7572,1.75766,-2.14266
779.8,23.8463,1.72825,-2.14639
782.5,23.9355,1.70028,-2.15024
785.2,24.025,1.67008,-2.15473
787.9,24.1143,1.64414,-2.15931
790.6,24.2034,1.61245,-2.16066
793.3,24.293,1.58448,-2.16595
796,24.3823,1.5441,-2.16275
798.7,24.4716,1.49963,-2.16829
801.4,24.5613,1.45832,-2.17161
804.1,24.6507,1.43095,-2.17447
806.8,24.7402,1.38287,-2.17826
809.5,24.8301,1.32485,-2.18549
812.2,24.9194,1.28104,-2.18161
814.9,25.009,1.22526,-2.18221
817.6,25.0988,1.17399,-2.18516
820.3,25.1887,1.09494,-2.19032
823,25.2783,1.02494,-2.19163
825.7,25.368,0.969185,-2.19246
828.4,25.4577,0.93567,-2.19368
831.1,25.5481,0.897887,-2.19463
833.8,25.6379,0.854016,-2.19704
836.5,25.7278,0.809205,-2.19894
839.2,25.818,0.761815,-2.20208
840,25.8447,0.742189,-2.20215