Folder: fsri_materials_database/01_Data/Helmet_Brim_Edging/STA/N2/10K_min (part 2)

File: Helmet_Brim_Edging_STA_N2_10KData_241011_R3.csv
Temp./C,Time/min,DSC/(mW/mg),Mass loss/mg
60.0,0.0,0.968849,0.0113202
62.2,0.245394,1.03173,0.0113808
64.4,0.485088,1.06879,0.0112981
66.6,0.722819,1.10794,0.0113153
68.8,0.955526,1.11797,0.0112904
71,1.187,1.13431,0.0126497
73.2,1.41788,1.14547,0.0113023
75.4,1.64618,1.15163,0.0127193
77.6,1.87443,1.17382,0.0112538
79.8,2.09996,1.19059,0.0113167
82,2.32662,1.20272,0.0101672
84.2,2.55062,1.20923,0.0113052
86.4,2.77158,1.21707,0.0132784
88.6,2.99326,1.23915,0.0111693
90.8,3.21363,1.24824,0.0126199
93,3.433,1.26215,0.0126216
95.2,3.6507,1.27304,0.01262
97.4,3.86751,1.28322,0.0126101
99.6,4.08575,1.28748,0.0126188
101.8,4.30144,1.2906,0.0126202
104,4.51779,1.30622,0.0122878
106.2,4.73132,1.3371,0.0126284
108.4,4.94783,1.34011,0.0133831
110.6,5.15984,1.35894,0.0126198
112.8,5.37639,1.37351,0.0113016
115,5.58942,1.39491,0.01262
117.2,5.80446,1.42773,0.01262
119.4,6.01672,1.42265,0.012695
121.6,6.22997,1.40837,0.0142603
123.8,6.44245,1.42429,0.0132781
126,6.65535,1.43138,0.0126218
128.2,6.86865,1.44004,0.01196
130.4,7.0814,1.44343,0.015037
132.6,7.29303,1.46018,0.0122862
134.8,7.50407,1.48282,0.01361
137,7.71456,1.51905,0.0136387
139.2,7.92864,1.5782,0.0149293
141.4,8.14202,1.64145,0.01361
143.6,8.35341,1.73922,0.0149383
145.8,8.5663,1.84897,0.0138209
148,8.77881,1.99016,0.0135393
150.2,8.99206,2.09829,0.0145036
152.4,9.20222,2.17372,0.0141479
154.6,9.41134,2.11298,0.0151261
156.8,9.62043,1.84703,0.0148171
159,9.82805,1.63769,0.0151118
161.2,10.0363,1.54634,0.01514
163.4,10.2454,1.52757,0.01515
165.6,10.4547,1.5336,0.0158093
167.8,10.665,1.52675,0.01449
170,10.8734,1.53185,0.01515
172.2,11.0837,1.54112,0.0164701
174.4,11.293,1.53902,0.01613
176.6,11.5028,1.54639,0.0151397
178.8,11.7116,1.55078,0.01613
181,11.9206,1.554,0.0151501
183.2,12.1301,1.5662,0.01647
185.4,12.3393,1.56697,0.0151461
187.6,12.5489,1.56133,0.0161276
189.8,12.7581,1.5754,0.0155012
192,12.9689,1.59208,0.0150509
194.2,13.178,1.58477,0.0145099
196.4,13.387,1.59941,0.0165108
198.6,13.5955,1.59439,0.0138202
200.8,13.8042,1.61656,0.0138298
203,14.0135,1.60434,0.0151389
205.2,14.2227,1.61176,0.0148826
207.4,14.4314,1.61099,0.0135006
209.6,14.6402,1.61707,0.012528
211.8,14.8499,1.62774,0.01383
214,15.0584,1.6387,0.0118467
216.2,15.2673,1.64016,0.0131716
218.4,15.4769,1.63502,0.01152
220.6,15.6857,1.65256,0.012511
222.8,15.8947,1.64069,0.0128921
225,16.1037,1.65457,0.0122571
227.2,16.3108,1.6557,0.0112
229.4,16.5221,1.64666,0.0108765
231.6,16.7315,1.66228,0.00987883
233.8,16.9403,1.66316,0.00994561
236,17.1486,1.66798,0.00988069
238.2,17.3584,1.68756,0.00889522
240.4,17.5672,1.68327,0.00723197
242.6,17.776,1.68636,0.00726807
244.8,17.9858,1.69073,0.00592
247,18.1951,1.68506,0.00492973
249.2,18.4048,1.69485,0.00395
251.4,18.6137,1.69922,0.00395
253.6,18.8228,1.70288,0.00229033
255.8,19.0311,1.71135,-0.00162986
258,19.2412,1.71618,-0.00156502
260.2,19.4502,1.71677,-0.00428059
262.4,19.6595,1.71818,-0.00580572
264.6,19.8692,1.72046,-0.00692557
266.8,20.0793,1.7324,-0.00920871
269,20.2888,1.74586,-0.0118046
271.2,20.4988,1.7473,-0.0145295
273.4,20.7093,1.75907,-0.0170091
275.6,20.9201,1.75951,-0.0210796
277.8,21.1298,1.77643,-0.0251131
280,21.3404,1.77781,-0.0276773
282.2,21.5515,1.77957,-0.0330226
284.4,21.7619,1.7935,-0.0368888
286.6,21.9724,1.79322,-0.0395409
288.8,22.1824,1.80808,-0.0448961
291,22.3915,1.83131,-0.0511791
293.2,22.6015,1.82254,-0.0574649
295.4,22.8101,1.84077,-0.064333
297.6,23.0225,1.86445,-0.0683748
299.8,23.2322,1.87205,-0.0766181
302,23.4435,1.89817,-0.0854507
304.2,23.6511,1.91208,-0.0930476
306.4,23.8649,1.93458,-0.104497
308.6,24.0767,1.98342,-0.114493
310.8,24.2872,2.01341,-0.128294
313,24.4979,2.01965,-0.139258
315.2,24.7079,1.86681,-0.154669
317.4,24.9177,1.78236,-0.16917
319.6,25.1264,1.7724,-0.187874
321.8,25.34,1.78299,-0.208064
324,25.5515,1.78469,-0.231072
326.2,25.7625,1.79954,-0.252692
328.4,25.9751,1.80894,-0.277802
330.6,26.1863,1.81271,-0.306573
332.8,26.3988,1.80388,-0.339992
335,26.6107,1.80014,-0.376961
337.2,26.8222,1.79394,-0.413165
339.4,27.0345,1.78006,-0.45578
341.6,27.2462,1.74771,-0.500431
343.8,27.4581,1.71983,-0.555893
346,27.6691,1.67325,-0.618708
348.2,27.8795,1.64075,-0.692032
350.4,28.094,1.62338,-0.782168
352.6,28.3072,1.63614,-0.87605
354.8,28.5194,1.63951,-0.972013
357,28.7323,1.62773,-1.0634
359.2,28.9459,1.64226,-1.14574
361.4,29.1571,1.64937,-1.21324
363.6,29.3711,1.65807,-1.27411
365.8,29.5835,1.64457,-1.32708
368,29.7967,1.64336,-1.37456
370.2,30.0101,1.62593,-1.41849
372.4,30.2226,1.60015,-1.45683
374.6,30.436,1.57764,-1.49408
376.8,30.6501,1.55923,-1.52992
379,30.8626,1.54834,-1.56287
381.2,31.0746,1.52675,-1.59537
383.4,31.2893,1.50934,-1.62482
385.6,31.5007,1.50036,-1.65557
387.8,31.714,1.47668,-1.68366
390,31.9276,1.45549,-1.70986
392.2,32.1412,1.44519,-1.73782
394.4,32.3559,1.42853,-1.76424
396.6,32.5694,1.42333,-1.7908
398.8,32.7832,1.41182,-1.81834
401,32.9978,1.40304,-1.84369
403.2,33.2134,1.40751,-1.86837
405.4,33.4285,1.41697,-1.89496
407.6,33.6433,1.39653,-1.91957
409.8,33.8583,1.40783,-1.94586
412,34.0733,1.40461,-1.96971
414.2,34.2878,1.40235,-1.99434
416.4,34.5031,1.41098,-2.02124
418.6,34.7183,1.41174,-2.04821
420.8,34.9322,1.42252,-2.07497
423,35.1486,1.44148,-2.10295
425.2,35.3633,1.45106,-2.1322
427.4,35.5764,1.45895,-2.15957
429.6,35.7948,1.45548,-2.19097
431.8,36.0117,1.48447,-2.22315
434,36.228,1.49315,-2.25656
436.2,36.4446,1.52182,-2.29096
438.4,36.6598,1.54189,-2.32652
440.6,36.8774,1.56052,-2.36601
442.8,37.0941,1.57774,-2.4078
445,37.3108,1.60927,-2.45281
447.2,37.5265,1.61451,-2.50078
449.4,37.7425,1.63996,-2.5486
451.6,37.9593,1.64738,-2.60128
453.8,38.1749,1.64577,-2.65598
456,38.3921,1.63528,-2.71122
458.2,38.6091,1.62105,-2.77238
460.4,38.8258,1.57573,-2.83065
462.6,39.0425,1.51823,-2.89221
464.8,39.2586,1.44535,-2.95115
467,39.4726,1.3533,-3.01102
469.2,39.6903,1.24109,-3.06916
471.4,39.9058,1.11701,-3.12542
473.6,40.1212,0.979741,-3.17386
475.8,40.3342,0.828313,-3.21725
478,40.5503,0.674547,-3.2564
480.2,40.7659,0.519617,-3.28977
482.4,40.98,0.384088,-3.31429
484.6,41.195,0.279583,-3.33343
486.8,41.4111,0.183835,-3.34217
489,41.6266,0.136894,-3.3543
491.2,41.8444,0.0951477,-3.35986
493.4,42.0612,0.0626153,-3.3644
495.6,42.2794,0.0584322,-3.36701
497.8,42.4979,0.0520261,-3.36705
500,42.716,0.0408006,-3.37001
502.2,42.9342,0.0283001,-3.36869
504.4,43.1526,0.0403784,-3.37042
506.6,43.3694,0.0290443,-3.37001
508.8,43.5892,0.0151391,-3.36802
511,43.808,0.02175,-3.36841
513.2,44.0258,0.0199763,-3.37067
515.4,44.2439,0.0194595,-3.37067
517.6,44.461,0.0158974,-3.36935
519.8,44.68,0.0269608,-3.36935
522,44.897,0.0291863,-3.37034
524.2,45.1161,0.0327559,-3.37169
526.4,45.3357,0.0366101,-3.37067
528.6,45.5534,0.0386832,-3.37199
530.8,45.7723,0.0352391,-3.37068
533,45.9915,0.0444931,-3.37067
535.2,46.2093,0.0654803,-3.37198
537.4,46.4308,0.0596471,-3.37264
539.6,46.6498,0.0656967,-3.37264
541.8,46.8702,0.0781396,-3.37324
544,47.089,0.0856689,-3.37462
546.2,47.3077,0.0753806,-3.37462
548.4,47.5271,0.0871288,-3.37594
550.6,47.746,0.083285,-3.37725
552.8,47.9633,0.0782292,-3.37675
555,48.1822,0.0831727,-3.37859
557.2,48.4009,0.0923322,-3.37894
559.4,48.6208,0.102476,-3.37988
561.6,48.8403,0.124178,-3.37994
563.8,49.0603,0.123924,-3.38254
566,49.2808,0.128669,-3.38483
568.2,49.4994,0.119963,-3.38369
570.4,49.7206,0.0853726,-3.38747
572.6,49.9406,0.0395902,-3.38743
574.8,50.1599,0.0123162,-3.38951
577,50.3799,-0.0167599,-3.39017
579.2,50.5999,-0.0320492,-3.39076
581.4,50.8209,-0.0401378,-3.39078
583.6,51.0407,-0.0528054,-3.39206
585.8,51.2585,-0.0539649,-3.3934
588,51.4817,-0.0512398,-3.3934
590.2,51.7019,-0.0650053,-3.39209
592.4,51.9216,-0.0621477,-3.39472
594.6,52.1417,-0.0671365,-3.39337
596.8,52.3628,-0.057,-3.39339
599,52.5835,-0.0612627,-3.39341
601.2,52.8045,-0.0590697,-3.39471
603.4,53.025,-0.0637057,-3.39603
605.6,53.2467,-0.0686118,-3.39603
607.8,53.4681,-0.0621761,-3.39603
610,53.6882,-0.0650149,-3.39504
612.2,53.9098,-0.0579487,-3.39636
614.4,54.1307,-0.0649684,-3.39767
616.6,54.3528,-0.0705426,-3.39866
618.8,54.5737,-0.0743661,-3.39866
621,54.7952,-0.0772681,-3.39736
623.2,55.0161,-0.0802967,-3.39932
625.4,55.2387,-0.0970664,-3.39932
627.6,55.4598,-0.111042,-3.39801
629.8,55.6808,-0.116086,-3.39931
632,55.9022,-0.121929,-3.39999
634.2,56.1234,-0.11679,-3.39964
636.4,56.3448,-0.123923,-3.39965
638.6,56.567,-0.128922,-3.40031
640.8,56.7891,-0.131451,-3.39899
643,57.0108,-0.150115,-3.40025
645.2,57.2299,-0.157331,-3.40097
647.4,57.4557,-0.156787,-3.40031
649.6,57.6766,-0.149642,-3.39902
651.8,57.8988,-0.149915,-3.39828
654,58.1197,-0.158641,-3.39798
656.2,58.3407,-0.148163,-3.39866
658.4,58.5616,-0.15835,-3.39866
660.6,58.783,-0.167282,-3.39998
662.8,59.0035,-0.162564,-3.39867
665,59.2248,-0.152321,-3.39999
667.2,59.4464,-0.146656,-3.4013
669.4,59.6684,-0.136615,-3.39866
671.6,59.8904,-0.125625,-3.39931
673.8,60.1101,-0.126551,-3.40134
676,60.3346,-0.116668,-3.39899
678.2,60.5582,-0.120264,-3.40022
680.4,60.7803,-0.121025,-3.40031
682.6,61.0027,-0.118478,-3.39997
684.8,61.2248,-0.120443,-3.39998
687,61.4476,-0.121141,-3.39996
689.2,61.6708,-0.126564,-3.40127
690,61.7522,-0.125453,-3.40129

File: Helmet_Brim_Edging_STA_N2_10KData_241018_R4.csv
Temp./C,Time/min,DSC/(mW/mg),Mass loss/mg
60.0,0.0,0.940595,0.00811037
62.2,0.245392,1.00072,0.00990825
64.4,0.481888,1.04177,0.00977887
66.6,0.719329,1.0789,0.00847281
68.8,0.952185,1.0956,0.00975125
71,1.18335,1.11492,0.00844749
73.2,1.41276,1.12939,0.00985637
75.4,1.64065,1.13482,0.00844774
77.6,1.86709,1.14963,0.00980107
79.8,2.09332,1.15283,0.00996646
82,2.31668,1.16978,0.0108169
84.2,2.53984,1.19252,0.0120701
86.4,2.76107,1.21022,0.0123966
88.6,2.9805,1.22833,0.0117668
90.8,3.20167,1.23633,0.0121171
93,3.41667,1.24281,0.0094408
95.2,3.63367,1.25362,0.0107585
97.4,3.84982,1.26089,0.0110583
99.6,4.06527,1.27378,0.01207
101.8,4.2796,1.28175,0.0129998
104,4.49403,1.31046,0.01208
106.2,4.70787,1.31508,0.0120868
108.4,4.92207,1.32874,0.01207
110.6,5.13631,1.34307,0.0118626
112.8,5.3512,1.36088,0.0120798
115,5.56176,1.38583,0.0120798
117.2,5.77647,1.4163,0.0133902
119.4,5.99005,1.42472,0.01339
121.6,6.20245,1.40479,0.0147569
123.8,6.41419,1.40869,0.0136707
126,6.62679,1.42569,0.0133916
128.2,6.84023,1.42761,0.0143862
130.4,7.05202,1.44501,0.0161266
132.6,7.2636,1.47005,0.0147071
134.8,7.47518,1.50107,0.0154343
137,7.68601,1.54122,0.0153595
139.2,7.89854,1.59456,0.01504
141.4,8.10957,1.66161,0.0147252
143.6,8.32179,1.76222,0.0140497
145.8,8.53366,1.8748,0.0154384
148,8.74454,2.00163,0.0140386
150.2,8.95677,2.12225,0.01503
152.4,9.16624,2.19294,0.0137207
154.6,9.37612,2.12812,0.0164618
156.8,9.58216,1.86201,0.0163814
159,9.78798,1.64058,0.01504
161.2,9.99623,1.55208,0.01372
163.4,10.2046,1.52362,0.014061
165.6,10.4132,1.52291,0.0134095
167.8,10.6222,1.52507,0.01603
170,10.8309,1.54355,0.0174667
172.2,11.0409,1.5447,0.0140481
174.4,11.2499,1.5428,0.0150405
176.6,11.4583,1.54623,0.014445
178.8,11.6672,1.54732,0.0150413
181,11.8761,1.56003,0.0150072
183.2,12.0841,1.56357,0.01504
185.4,12.2924,1.56557,0.01504
187.6,12.5006,1.58015,0.01636
189.8,12.7085,1.58598,0.0157112
192,12.9171,1.60023,0.0153727
194.2,13.1257,1.60272,0.01504
196.4,13.3336,1.60168,0.0140366
198.6,13.5397,1.6167,0.0150396
200.8,13.7501,1.61614,0.0138311
203,13.9598,1.63064,0.01471
205.2,14.1679,1.63843,0.0147099
207.4,14.3759,1.63556,0.0144904
209.6,14.5832,1.63337,0.0146691
211.8,14.7927,1.6403,0.0133902
214,15.0017,1.64271,0.0137155
216.2,15.2107,1.64786,0.01438
218.4,15.4172,1.65675,0.01438
220.6,15.6268,1.65551,0.0143702
222.8,15.8339,1.65171,0.0127784
225,16.0418,1.66481,0.01339
227.2,16.2509,1.66425,0.0130681
229.4,16.4592,1.67402,0.0133884
231.6,16.6661,1.67314,0.0107496
233.8,16.8767,1.67818,0.0107502
236,17.0842,1.67904,0.00910981
238.2,17.293,1.68297,0.00911
240.4,17.5011,1.68197,0.00713691
242.6,17.7093,1.69821,0.00713984
244.8,17.9187,1.68644,0.00713218
247,18.1285,1.68332,0.00325145
249.2,18.3359,1.68612,0.00351
251.4,18.5437,1.69743,0.0021253
253.6,18.7514,1.69412,0.00111996
255.8,18.961,1.6929,-0.000439951
258,19.1693,1.70108,-0.00174983
260.2,19.3769,1.69759,-0.00571
262.4,19.5861,1.70701,-0.00734815
264.6,19.7952,1.71294,-0.00863807
266.8,20.0016,1.72977,-0.0121119
269,20.2139,1.73597,-0.016468
271.2,20.422,1.74154,-0.0179053
273.4,20.6325,1.74338,-0.0221907
275.6,20.8421,1.7531,-0.0259251
277.8,21.0527,1.76256,-0.0287673
280,21.2609,1.77003,-0.0343864
282.2,21.4714,1.78558,-0.0383079
284.4,21.6813,1.79235,-0.0445529
286.6,21.8906,1.80321,-0.0485477
288.8,22.1008,1.80793,-0.056434
291,22.3114,1.82366,-0.0617611
293.2,22.5207,1.83704,-0.0682109
295.4,22.7302,1.85239,-0.0753062
297.6,22.9392,1.866,-0.0815892
299.8,23.151,1.88633,-0.0904136
302,23.3608,1.9041,-0.0987434
304.2,23.5712,1.91267,-0.108473
306.4,23.7814,1.95225,-0.120261
308.6,23.9919,1.97344,-0.130224
310.8,24.2025,2.0059,-0.143027
313,24.4139,2.03952,-0.156944
315.2,24.6233,1.99587,-0.172583
317.4,24.8324,1.82666,-0.189066
319.6,25.0405,1.79635,-0.208136
321.8,25.2513,1.78868,-0.227476
324,25.4605,1.7948,-0.248666
326.2,25.6705,1.79936,-0.272286
328.4,25.8807,1.80914,-0.297809
330.6,26.092,1.81139,-0.32823
332.8,26.3031,1.83305,-0.358202
335,26.5138,1.83067,-0.391692
337.2,26.7235,1.8397,-0.430697
339.4,26.9363,1.82558,-0.472996
341.6,27.1475,1.81656,-0.520234
343.8,27.3568,1.7934,-0.570858
346,27.5701,1.76902,-0.625603
348.2,27.7827,1.74084,-0.68774
350.4,27.9939,1.70966,-0.761957
352.6,28.2053,1.68324,-0.842758
354.8,28.4173,1.67573,-0.934735
357,28.6294,1.69134,-1.03621
359.2,28.8413,1.68909,-1.13422
361.4,29.054,1.66712,-1.22801
363.6,29.2661,1.63788,-1.31262
365.8,29.4788,1.62324,-1.38422
368,29.6895,1.60048,-1.44321
370.2,29.9017,1.57764,-1.49628
372.4,30.1133,1.53613,-1.54489
374.6,30.325,1.50381,-1.58655
376.8,30.537,1.47749,-1.62363
379,30.7477,1.44837,-1.65683
381.2,30.9607,1.4203,-1.69005
383.4,31.1727,1.39768,-1.72065
385.6,31.385,1.37446,-1.74943
387.8,31.5957,1.36265,-1.77614
390,31.81,1.35119,-1.80558
392.2,32.0205,1.33355,-1.82877
394.4,32.2356,1.32676,-1.85682
396.6,32.45,1.31775,-1.88013
398.8,32.6631,1.30958,-1.90611
401,32.8759,1.30846,-1.93162
403.2,33.0897,1.3037,-1.95393
405.4,33.3036,1.30668,-1.98049
407.6,33.5175,1.31223,-2.00233
409.8,33.7316,1.31494,-2.02788
412,33.9464,1.32558,-2.0519
414.2,34.1595,1.32618,-2.07547
416.4,34.3752,1.33782,-2.09727
418.6,34.5897,1.34793,-2.12216
420.8,34.8051,1.3549,-2.14949
423,35.0198,1.3777,-2.17605
425.2,35.2351,1.39186,-2.20348
427.4,35.4496,1.41017,-2.23107
429.6,35.6648,1.42446,-2.25856
431.8,35.8802,1.44218,-2.28875
434,36.0953,1.45981,-2.32061
436.2,36.3102,1.48796,-2.35363
438.4,36.5264,1.51847,-2.38721
440.6,36.7433,1.55157,-2.42444
442.8,36.9573,1.57157,-2.46512
445,37.1749,1.59952,-2.50671
447.2,37.3896,1.6264,-2.54959
449.4,37.6062,1.6381,-2.59904
451.6,37.8223,1.6467,-2.64837
453.8,38.0369,1.65921,-2.69876
456,38.2539,1.64138,-2.75325
458.2,38.4677,1.62529,-2.8083
460.4,38.6857,1.58487,-2.86685
462.6,38.9013,1.54496,-2.92519
464.8,39.1187,1.4742,-2.98439
467,39.333,1.37385,-3.04169
469.2,39.5495,1.2744,-3.09852
471.4,39.7646,1.1373,-3.1532
473.6,39.9788,1.00404,-3.20093
475.8,40.1932,0.860145,-3.24434
478,40.4069,0.704705,-3.28159
480.2,40.6206,0.569988,-3.31392
482.4,40.8364,0.430669,-3.34008
484.6,41.051,0.315168,-3.35753
486.8,41.2665,0.238222,-3.37203
489,41.4827,0.191444,-3.38049
491.2,41.7,0.154772,-3.38624
493.4,41.9164,0.1174,-3.39019
495.6,42.1344,0.108985,-3.39258
497.8,42.3525,0.0980707,-3.39384
500,42.5695,0.0929955,-3.39516
502.2,42.787,0.0932125,-3.39778
504.4,43.0049,0.0806836,-3.39647
506.6,43.2203,0.0847178,-3.39482
508.8,43.44,0.0767726,-3.39614
511,43.6567,0.0737565,-3.39578
513.2,43.8755,0.0714045,-3.39745
515.4,44.0938,0.0743579,-3.39745
517.6,44.3113,0.0705773,-3.39745
519.8,44.528,0.0616126,-3.39877
522,44.745,0.0668229,-3.39877
524.2,44.9639,0.0743288,-3.39778
526.4,45.1821,0.0788373,-3.39778
528.6,45.4008,0.0878891,-3.3991
530.8,45.6211,0.0838984,-3.39911
533,45.8409,0.102427,-3.39778
535.2,46.0593,0.111173,-3.40041
537.4,46.2792,0.111429,-3.40041
539.6,46.4982,0.116917,-3.40041
541.8,46.718,0.118072,-3.40174
544,46.9378,0.11812,-3.40246
546.2,47.1545,0.113388,-3.40437
548.4,47.3743,0.110583,-3.40437
550.6,47.5941,0.118677,-3.40535
552.8,47.8138,0.119352,-3.40601
555,48.0298,0.128189,-3.40898
557.2,48.2516,0.135762,-3.40636
559.4,48.4717,0.143634,-3.40812
561.6,48.6918,0.141492,-3.41102
563.8,48.9112,0.140461,-3.41155
566,49.1328,0.117581,-3.41293
568.2,49.3512,0.0825471,-3.41461
570.4,49.5707,0.044126,-3.4159
572.6,49.7905,0.00484395,-3.41589
574.8,50.0111,-0.0163322,-3.41721
577,50.2311,-0.0231198,-3.41855
579.2,50.4508,-0.0347181,-3.41895
581.4,50.6705,-0.0376096,-3.41856
583.6,50.8899,-0.0305159,-3.41985
585.8,51.1103,-0.038649,-3.41985
588,51.3301,-0.0493935,-3.42116
590.2,51.5495,-0.0559609,-3.41991
592.4,51.769,-0.051262,-3.42116
594.6,51.9888,-0.0457994,-3.42116
596.8,52.209,-0.0442909,-3.42248
599,52.4286,-0.0370017,-3.42248
601.2,52.6478,-0.0380169,-3.4238
603.4,52.8702,-0.0245338,-3.42414
605.6,53.0912,-0.0181946,-3.4238
607.8,53.3121,-0.00527893,-3.42387
610,53.5336,0.00181632,-3.42512
612.2,53.7547,0.00359242,-3.42512
614.4,53.9761,0.00364176,-3.42512
616.6,54.1968,-0.000799637,-3.42601
618.8,54.4189,0.00386208,-3.42647
621,54.6398,0.021606,-3.42643
623.2,54.861,-0.0187056,-3.42783
625.4,55.0826,-0.0223691,-3.42874
627.6,55.305,-0.0307677,-3.42775
629.8,55.5265,-0.0274004,-3.4293
632,55.7484,-0.0199115,-3.43005
634.2,55.9698,-0.0298055,-3.43005
636.4,56.1923,-0.0407488,-3.42874
638.6,56.4147,-0.0310459,-3.43006
640.8,56.635,-0.042361,-3.43006
643,56.8573,-0.0404922,-3.43006
645.2,57.0788,-0.0351466,-3.43105
647.4,57.3011,-0.0358723,-3.43006
649.6,57.5236,-0.0505165,-3.43068
651.8,57.7455,-0.0388787,-3.43093
654,57.9653,-0.0451219,-3.43006
656.2,58.188,-0.0520282,-3.43119
658.4,58.4079,-0.0549387,-3.43203
660.6,58.6282,-0.0567641,-3.43039
662.8,58.8512,-0.0550182,-3.43008
665,59.0719,-0.0503428,-3.43038
667.2,59.2932,-0.049228,-3.43039
669.4,59.515,-0.0563266,-3.4311
671.6,59.7364,-0.0412379,-3.42973
673.8,59.9586,-0.0357778,-3.43072
676,60.1818,-0.0318175,-3.43111
678.2,60.4046,-0.0358846,-3.43138
680.4,60.627,-0.0366046,-3.43137
682.6,60.8487,-0.0253758,-3.43138
684.8,61.0701,-0.037609,-3.43269
687,61.2948,-0.0370996,-3.43268
689.2,61.5173,-0.0393383,-3.43176
690,61.5988,-0.0430271,-3.43302