Folder: fsri_materials_database/01_Data/Helmet_Brim_Edging/STA/N2/10K_min

File: Helmet_Brim_Edging_STA_N2_10KData_240223_R1.csv
Temp./C,Time/min,DSC/(mW/mg),Mass loss/mg
60.0,0.0,0.755005,0.00055654
62,0.224637,0.799587,0.00176901
64,0.442525,0.823005,0.000465577
66,0.66302,0.830807,0.000554015
68,0.873917,0.846166,0.000430485
70,1.08962,0.869204,-0.00189065
72,1.3,0.873134,-0.000848898
74,1.50935,0.887586,-0.000864205
76,1.71693,0.890164,0.000440004
78,1.9237,0.894095,-0.00140082
80,2.13031,0.898501,-0.000869992
82,2.3347,0.910631,-0.000879961
84,2.53856,0.918471,-0.00206046
86,2.74192,0.91316,-0.00246235
88,2.94251,0.916734,-0.000827828
90,3.14241,0.927857,-0.000880575
92,3.34303,0.935163,-0.00151842
94,3.54212,0.938382,-0.00285001
96,3.73903,0.940504,-0.00154008
98,3.93574,0.949237,-0.00157318
100,4.1328,0.952428,-0.00417123
102,4.32933,0.95332,-0.00284761
104,4.52554,0.959935,-0.00337789
106,4.71827,0.963897,-0.00548012
108,4.91682,0.973452,-0.00549004
110,5.11161,0.972998,-0.00549531
112,5.30611,0.978016,-0.00416969
114,5.50251,0.972913,-0.00413562
116,5.69626,0.973975,-0.00416704
118,5.89196,0.978924,-0.00416824
120,6.08554,0.985309,-0.0051448
122,6.27852,0.988455,-0.00548974
124,6.47232,0.99601,-0.00549
126,6.66656,0.9899,-0.00417021
128,6.85894,1.00131,-0.00680787
130,7.05297,1.01704,-0.00549011
132,7.24671,1.022,-0.00779001
134,7.43979,1.04813,-0.00778928
136,7.63204,1.06273,-0.00646944
138,7.82543,1.09143,-0.00811947
140,8.01904,1.14024,-0.00943729
142,8.21173,1.20082,-0.00812
144,8.40406,1.27435,-0.00944
146,8.59684,1.36822,-0.00811999
148,8.79048,1.47522,-0.01042
150,8.98421,1.58661,-0.010434
152,9.17851,1.67913,-0.0117815
154,9.36963,1.73513,-0.0107937
156,9.5594,1.66517,-0.01175
158,9.74812,1.46577,-0.0125908
160,9.93647,1.25977,-0.0114893
162,10.1251,1.15584,-0.0116901
164,10.3154,1.11407,-0.0116899
166,10.5045,1.11093,-0.0124
168,10.6972,1.1045,-0.01306
170,10.8869,1.11627,-0.01438
172,11.0758,1.12157,-0.0130242
174,11.2676,1.12223,-0.0140987
176,11.4602,1.13276,-0.0127418
178,11.649,1.13241,-0.0140592
180,11.8399,1.13064,-0.01405
182,12.0298,1.13919,-0.01471
184,12.2201,1.14436,-0.0153536
186,12.4104,1.15156,-0.0166815
188,12.6011,1.1545,-0.01669
190,12.7907,1.16137,-0.0166864
192,12.9819,1.15194,-0.01669
194,13.1715,1.16505,-0.0180099
196,13.362,1.16515,-0.0193199
198,13.5511,1.16648,-0.0193203
200,13.7406,1.17905,-0.02063
202,13.9315,1.17436,-0.02129
204,14.1201,1.18813,-0.0219505
206,14.3103,1.19707,-0.0232698
208,14.5,1.19341,-0.0212966
210,14.6913,1.20738,-0.0245768
212,14.8804,1.20933,-0.02524
214,15.0723,1.21933,-0.0266992
216,15.2623,1.21793,-0.02821
218,15.4525,1.22571,-0.02887
220,15.6421,1.23136,-0.0281631
222,15.8329,1.23858,-0.0308417
224,16.0226,1.24565,-0.0307971
226,16.2131,1.2538,-0.0328197
228,16.4009,1.25388,-0.03414
230,16.5942,1.26464,-0.0354565
232,16.7839,1.26472,-0.0364542
234,16.9721,1.27193,-0.0367769
236,17.1643,1.27126,-0.0394232
238,17.3545,1.27602,-0.04072
240,17.5452,1.27849,-0.0420169
242,17.7345,1.28036,-0.044662
244,17.9243,1.29301,-0.0467873
246,18.1149,1.28866,-0.0485709
248,18.3054,1.29752,-0.0512922
250,18.4955,1.30459,-0.0525815
252,18.6856,1.31718,-0.05654
254,18.8751,1.32019,-0.0578603
256,19.0655,1.32791,-0.0614182
258,19.256,1.33362,-0.0631301
260,19.4462,1.32984,-0.0657018
262,19.636,1.33405,-0.0683908
264,19.8275,1.33742,-0.0716978
266,20.0173,1.33629,-0.0762657
268,20.2072,1.34929,-0.0777562
270,20.3989,1.35351,-0.0828741
272,20.5897,1.3636,-0.0868477
274,20.781,1.36205,-0.0922181
276,20.9719,1.37749,-0.0975061
278,21.1633,1.3766,-0.102798
280,21.3527,1.3863,-0.106503
282,21.546,1.39711,-0.113079
284,21.7379,1.40615,-0.117483
286,21.9302,1.406,-0.124382
288,22.1197,1.42012,-0.129978
290,22.3119,1.41971,-0.134894
292,22.5037,1.42994,-0.142264
294,22.6939,1.4404,-0.149989
296,22.8857,1.44412,-0.156951
298,23.0762,1.45928,-0.163371
300,23.2689,1.46393,-0.173048
302,23.4594,1.47958,-0.181409
304,23.6505,1.50393,-0.190411
306,23.8431,1.52753,-0.2001
308,24.0347,1.56984,-0.212094
310,24.2272,1.60984,-0.223707
312,24.4193,1.64203,-0.234901
314,24.6117,1.6302,-0.249358
316,24.8016,1.44599,-0.264274
318,24.9928,1.38845,-0.28032
320,25.1854,1.37263,-0.29937
322,25.3774,1.36617,-0.320625
324,25.5687,1.3759,-0.341933
326,25.7618,1.37726,-0.366874
328,25.9543,1.3646,-0.392917
330,26.1465,1.35471,-0.422666
332,26.3396,1.34294,-0.45368
334,26.5322,1.33915,-0.489111
336,26.7246,1.31976,-0.525107
338,26.9165,1.29966,-0.568035
340,27.1087,1.27823,-0.617503
342,27.3021,1.24569,-0.674968
344,27.493,1.20692,-0.740487
346,27.6841,1.18556,-0.810956
348,27.8775,1.17616,-0.890653
350,28.0701,1.18485,-0.972503
352,28.2629,1.19248,-1.05403
354,28.4552,1.18177,-1.13077
356,28.6488,1.16955,-1.20178
358,28.8402,1.17504,-1.26379
360,29.0332,1.17072,-1.31876
362,29.2268,1.16207,-1.37274
364,29.4186,1.16306,-1.4188
366,29.6114,1.15988,-1.46231
368,29.8046,1.15379,-1.50066
370,29.9991,1.1431,-1.53872
372,30.1926,1.12868,-1.57299
374,30.3867,1.11149,-1.60483
376,30.5809,1.10159,-1.63429
378,30.7751,1.08531,-1.66342
380,30.9691,1.07209,-1.68977
382,31.162,1.0602,-1.71524
384,31.3557,1.04672,-1.74014
386,31.5502,1.04061,-1.76643
388,31.7453,1.03611,-1.79045
390,31.9404,1.02308,-1.8129
392,32.1351,1.0178,-1.83935
394,32.3288,1.00629,-1.86015
396,32.5244,1.00858,-1.88188
398,32.7189,1.00129,-1.90552
400,32.9134,1.00597,-1.92821
402,33.1086,1.00416,-1.95029
404,33.304,1.00816,-1.97197
406,33.4992,1.00864,-1.99344
408,33.6927,1.01859,-2.01458
410,33.8883,1.02618,-2.03494
412,34.0837,1.03113,-2.0583
414,34.2771,1.04056,-2.07818
416,34.475,1.0438,-2.10031
418,34.6695,1.04765,-2.12075
420,34.8662,1.06533,-2.14617
422,35.0615,1.06677,-2.1674
424,35.2571,1.07551,-2.19227
426,35.4529,1.09155,-2.21446
428,35.6495,1.10362,-2.23897
430,35.8456,1.12504,-2.26376
432,36.0411,1.14091,-2.29061
434,36.2379,1.16559,-2.31721
436,36.4337,1.19241,-2.34425
438,36.6302,1.22149,-2.37497
440,36.827,1.24501,-2.40452
442,37.0229,1.27805,-2.43979
444,37.2198,1.30264,-2.47305
446,37.4147,1.3178,-2.50977
448,37.6118,1.34634,-2.54887
450,37.808,1.37684,-2.58932
452,38.0046,1.39438,-2.63217
454,38.2013,1.41018,-2.67473
456,38.3984,1.4255,-2.72434
458,38.5964,1.43184,-2.77199
460,38.7926,1.42858,-2.82212
462,38.9898,1.41038,-2.87484
464,39.1866,1.38965,-2.92805
466,39.383,1.35105,-2.98418
468,39.5791,1.29438,-3.03688
470,39.7758,1.21683,-3.09041
472,39.9711,1.12184,-3.1412
474,40.1682,1.01963,-3.19051
476,40.3634,0.890535,-3.23591
478,40.5576,0.762174,-3.27865
480,40.7536,0.627756,-3.31542
482,40.9495,0.483879,-3.34756
484,41.1436,0.341355,-3.37121
486,41.3379,0.22478,-3.38956
488,41.5337,0.129685,-3.40276
490,41.7314,0.0663841,-3.41256
492,41.9276,0.0196015,-3.41952
494,42.1243,-0.0191022,-3.42511
496,42.3218,-0.0305338,-3.42785
498,42.5193,-0.0376023,-3.43049
500,42.7165,-0.0462025,-3.43214
502,42.9154,-0.0324399,-3.43478
504,43.1118,-0.0311448,-3.43412
506,43.3095,-0.0355459,-3.43544
508,43.5073,-0.0396339,-3.43676
510,43.705,-0.0379786,-3.43676
512,43.9029,-0.0397926,-3.43807
514,44.102,-0.0474717,-3.43807
516,44.3001,-0.0447582,-3.43972
518,44.4969,-0.0558854,-3.43834
520,44.6964,-0.0537316,-3.44104
522,44.8939,-0.0500038,-3.43972
524,45.0924,-0.0454844,-3.44104
526,45.2908,-0.0462874,-3.44363
528,45.4906,-0.0413303,-3.44366
530,45.6899,-0.0435651,-3.44367
532,45.8889,-0.0400809,-3.44301
534,46.0883,-0.0303743,-3.44433
536,46.288,-0.030774,-3.44596
538,46.4865,-0.0222001,-3.44714
540,46.6856,-0.0169265,-3.44588
542,46.8857,-0.0139645,-3.44828
544,47.0835,-0.0011162,-3.44956
546,47.2845,0.00890928,-3.45003
548,47.4825,0.0123821,-3.45124
550,47.6827,0.023124,-3.45255
552,47.8812,0.0352088,-3.45256
554,48.0803,0.0575639,-3.45389
556,48.2801,0.0758628,-3.45377
558,48.4796,0.102682,-3.45717
560,48.6788,0.124679,-3.45778
562,48.8778,0.143954,-3.45783
564,49.0776,0.157384,-3.46111
566,49.2749,0.154671,-3.46211
568,49.4775,0.149345,-3.46278
570,49.6757,0.132597,-3.46375
572,49.8761,0.11871,-3.46441
574,50.0756,0.119099,-3.46578
576,50.2757,0.132314,-3.46574
578,50.475,0.147145,-3.46705
580,50.6737,0.170768,-3.46706
582,50.8767,0.182442,-3.46706
584,51.078,0.197623,-3.46837
586,51.278,0.201297,-3.46837
588,51.4775,0.208707,-3.46936
590,51.6791,0.211302,-3.47002
592,51.8811,0.217555,-3.46902
594,52.0824,0.230631,-3.46969
596,52.2834,0.229256,-3.46936
598,52.4836,0.244551,-3.47067
600,52.6843,0.249236,-3.47168
602,52.886,0.268086,-3.47166
604,53.0871,0.286113,-3.47165
606,53.2872,0.297359,-3.47298
608,53.4879,0.314199,-3.47304
610,53.6909,0.320947,-3.47431
612,53.8927,0.341794,-3.47595
614,54.0941,0.360698,-3.47536
616,54.2948,0.37289,-3.4765
618,54.4968,0.376623,-3.47853
620,54.697,0.380941,-3.47858
622,54.8994,0.393691,-3.47924
624,55.0977,0.401947,-3.47924
626,55.2998,0.405911,-3.47989
628,55.5029,0.412061,-3.47988
630,55.7054,0.420481,-3.48251
632,55.9067,0.42583,-3.48201
634,56.1078,0.418358,-3.48356
636,56.3083,0.409989,-3.48352
638,56.5093,0.399592,-3.48484
640,56.7098,0.382848,-3.48616

File: Helmet_Brim_Edging_STA_N2_10KData_241010_R2.csv
Temp./C,Time/min,DSC/(mW/mg),Mass loss/mg
60.0,0.0,1.00672,0.00389126
62.2,0.24905,1.04975,0.0051851
64.4,0.489367,1.09754,0.00188829
66.6,0.726015,1.12733,0.00317897
68.8,0.959845,1.1404,0.00448678
71,1.1926,1.16175,0.00414987
73.2,1.42259,1.16877,0.0031791
75.4,1.65106,1.16995,0.00446319
77.6,1.8782,1.19913,0.00582611
79.8,2.10447,1.21887,0.00450763
82,2.33076,1.22802,0.00581976
84.2,2.55404,1.23515,0.00449989
86.4,2.77517,1.25779,0.00319021
88.6,2.99659,1.26959,0.0041699
90.8,3.21697,1.28407,0.00580475
93,3.4352,1.28935,0.00550796
95.2,3.65366,1.3065,0.00582278
97.4,3.87056,1.32189,0.0045
99.6,4.08619,1.32883,0.00582
101.8,4.30365,1.34181,0.00449868
104,4.5187,1.35749,0.00449212
106.2,4.73274,1.37835,0.00714099
108.4,4.94701,1.39926,0.00555004
110.6,5.16211,1.41578,0.00529063
112.8,5.37633,1.43727,0.00517044
115,5.5908,1.45566,0.00516102
117.2,5.80446,1.48919,0.0058326
119.4,6.01729,1.4973,0.00548888
121.6,6.22946,1.47632,0.00779
123.8,6.44338,1.48391,0.00778998
126,6.65527,1.50367,0.00788507
128.2,6.86832,1.51025,0.00944097
130.4,7.07978,1.5275,0.00847135
132.6,7.29348,1.54916,0.00802729
134.8,7.50358,1.58687,0.00713003
137,7.71635,1.63102,0.00909532
139.2,7.92867,1.68688,0.00709728
141.4,8.13989,1.75467,0.00811988
143.6,8.35187,1.85816,0.0107631
145.8,8.56456,1.97037,0.0107137
148,8.77525,2.10278,0.01076
150.2,8.98919,2.22428,0.0116047
152.4,9.20122,2.2978,0.0109493
154.6,9.4112,2.22662,0.0114198
156.8,9.61858,1.96516,0.00877763
159,9.82572,1.76212,0.0114102
161.2,10.035,1.66816,0.0127293
163.4,10.2428,1.6507,0.0114099
165.6,10.4547,1.64525,0.0101
167.8,10.6627,1.65965,0.0116585
170,10.8732,1.66054,0.01142
172.2,11.0802,1.67001,0.01043
174.4,11.2918,1.67795,0.011751
176.6,11.5018,1.67971,0.0120805
178.8,11.712,1.68443,0.0104361
181,11.9207,1.69211,0.0101
183.2,12.1301,1.69508,0.01043
185.4,12.3404,1.70305,0.0104266
187.6,12.5488,1.71639,0.0104308
189.8,12.7581,1.71186,0.00910947
192,12.9679,1.7177,0.010723
194.2,13.1764,1.72585,0.01043
196.4,13.3848,1.73649,0.0107547
198.6,13.5943,1.74574,0.01208
200.8,13.8025,1.74592,0.00943968
203,14.0128,1.74671,0.010871
205.2,14.2209,1.75559,0.0107602
207.4,14.4295,1.76039,0.0117507
209.6,14.6383,1.77115,0.0117356
211.8,14.847,1.77695,0.00944087
214,15.0551,1.78437,0.01042
216.2,15.2645,1.79294,0.00944
218.4,15.4736,1.79778,0.0101
220.6,15.6822,1.80887,0.0138112
222.8,15.8905,1.81528,0.0112
225,16.0971,1.82233,0.00849237
227.2,16.3088,1.82529,0.00725
229.4,16.5179,1.83361,0.00862346
231.6,16.7283,1.83774,0.00987034
233.8,16.9368,1.84412,0.00724976
236,17.1477,1.84289,0.00592976
238.2,17.3568,1.84597,0.00464243
240.4,17.5649,1.85697,0.00661854
242.6,17.7756,1.854,0.00659
244.8,17.9852,1.86085,0.00461055
247,18.1925,1.86308,0.00198
249.2,18.4029,1.87768,0.00109012
251.4,18.6131,1.8774,-0.00102497
253.6,18.822,1.89447,-0.00231174
255.8,19.0325,1.90213,-0.00231
258,19.2412,1.90267,-0.00503388
260.2,19.4513,1.91407,-0.0075718
262.4,19.6607,1.91774,-0.00888264
264.6,19.8709,1.92704,-0.0115126
266.8,20.0808,1.93254,-0.0128313
269,20.2914,1.94537,-0.01482
271.2,20.4999,1.95539,-0.0188028
273.4,20.711,1.96259,-0.0228291
275.6,20.9198,1.97616,-0.0252477
277.8,21.1296,1.98252,-0.0294607
280,21.3404,1.99834,-0.0328195
282.2,21.5505,2.01431,-0.0376654
284.4,21.7582,2.02642,-0.0424425
286.6,21.9716,2.03921,-0.0479636
288.8,22.1813,2.04464,-0.0517329
291,22.3921,2.06447,-0.0584288
293.2,22.6024,2.06865,-0.0670324
295.4,22.8131,2.08716,-0.0740689
297.6,23.0231,2.10644,-0.0809495
299.8,23.2339,2.12078,-0.0891448
302,23.4446,2.13549,-0.0982961
304.2,23.6551,2.16541,-0.109333
306.4,23.866,2.19556,-0.121823
308.6,24.0769,2.23006,-0.134307
310.8,24.2887,2.26421,-0.146073
313,24.4994,2.2779,-0.159977
315.2,24.7085,2.1599,-0.176084
317.4,24.9191,2.04773,-0.193208
319.6,25.1299,2.02485,-0.211287
321.8,25.3412,2.03175,-0.231703
324,25.5535,2.03248,-0.253953
326.2,25.764,2.04948,-0.280478
328.4,25.9773,2.05927,-0.30894
330.6,26.1887,2.06268,-0.337275
332.8,26.4004,2.07384,-0.370878
335,26.6126,2.0734,-0.404789
337.2,26.824,2.07523,-0.441853
339.4,27.0378,2.08603,-0.484648
341.6,27.2485,2.08121,-0.529053
343.8,27.4619,2.05664,-0.583471
346,27.6743,2.03085,-0.638666
348.2,27.8845,2.00938,-0.699186
350.4,28.0984,1.97586,-0.774138
352.6,28.3108,1.94896,-0.851377
354.8,28.5232,1.94099,-0.939322
357,28.7363,1.95015,-1.03221
359.2,28.9483,1.94434,-1.13135
361.4,29.1613,1.92969,-1.22528
363.6,29.3745,1.89384,-1.30885
365.8,29.5872,1.86054,-1.3839
368,29.7997,1.82283,-1.44896
370.2,30.0131,1.78273,-1.50715
372.4,30.2261,1.7353,-1.55509
374.6,30.4379,1.70155,-1.59675
376.8,30.6511,1.66405,-1.63374
379,30.8641,1.6327,-1.66749
381.2,31.078,1.61272,-1.70067
383.4,31.2901,1.58446,-1.73154
385.6,31.5036,1.56929,-1.75813
387.8,31.7163,1.5417,-1.78482
390,31.9312,1.52854,-1.81328
392.2,32.1453,1.51162,-1.83735
394.4,32.3593,1.49845,-1.86066
396.6,32.5726,1.4824,-1.88738
398.8,32.7861,1.47937,-1.911
401,33.0013,1.47354,-1.93173
403.2,33.2161,1.46843,-1.95404
405.4,33.43,1.48136,-1.97783
407.6,33.6447,1.47626,-2.00261
409.8,33.8608,1.48408,-2.02788
412,34.0756,1.49169,-2.04989
414.2,34.2913,1.49141,-2.07045
416.4,34.5055,1.50005,-2.0934
418.6,34.7203,1.50697,-2.11851
420.8,34.9356,1.51635,-2.14143
423,35.1509,1.51786,-2.16832
425.2,35.3664,1.53142,-2.19408
427.4,35.5815,1.54826,-2.2214
429.6,35.7975,1.5685,-2.24823
431.8,36.0133,1.5929,-2.27898
434,36.2301,1.60264,-2.31012
436.2,36.4464,1.64081,-2.34002
438.4,36.664,1.67313,-2.37514
440.6,36.8792,1.70115,-2.41031
442.8,37.0964,1.7164,-2.45016
445,37.3127,1.7314,-2.49206
447.2,37.5296,1.75019,-2.53347
449.4,37.7459,1.76745,-2.58201
451.6,37.9623,1.77323,-2.63001
453.8,38.1781,1.7735,-2.67809
456,38.3943,1.76982,-2.73068
458.2,38.6098,1.74173,-2.78489
460.4,38.8262,1.69115,-2.84126
462.6,39.0428,1.64431,-2.89754
464.8,39.2584,1.57723,-2.95386
467,39.4752,1.50147,-3.01005
469.2,39.6924,1.39334,-3.06235
471.4,39.9076,1.27254,-3.11381
473.6,40.1244,1.14897,-3.16057
475.8,40.3397,1.01884,-3.20277
478,40.5554,0.87077,-3.23527
480.2,40.7706,0.738854,-3.26697
482.4,40.9858,0.625446,-3.287
484.6,41.2015,0.515774,-3.30305
486.8,41.4158,0.44224,-3.31549
489,41.6346,0.397605,-3.32434
491.2,41.8514,0.364256,-3.32854
493.4,42.068,0.340085,-3.33254
495.6,42.2857,0.323803,-3.335
497.8,42.5035,0.306313,-3.33586
500,42.7202,0.297761,-3.33619
502.2,42.939,0.292583,-3.33619
504.4,43.1566,0.290268,-3.33883
506.6,43.3752,0.289892,-3.33888
508.8,43.5936,0.279952,-3.33673
511,43.8116,0.27648,-3.33913
513.2,44.0299,0.274151,-3.3363
515.4,44.2491,0.272419,-3.33633
517.6,44.4682,0.276558,-3.34027
519.8,44.6862,0.27907,-3.34026
522,44.906,0.278342,-3.33762
524.2,45.1245,0.279451,-3.33762
526.4,45.3425,0.282498,-3.33993
528.6,45.5623,0.278197,-3.33828
530.8,45.7812,0.299278,-3.33861
533,46.0008,0.310612,-3.33894
535.2,46.2197,0.321943,-3.34057
537.4,46.4378,0.323243,-3.33762
539.6,46.6573,0.332422,-3.33907
541.8,46.8766,0.327271,-3.34029
544,47.096,0.327573,-3.34033
546.2,47.3143,0.331424,-3.34158
548.4,47.5351,0.333239,-3.34295
550.6,47.7551,0.336611,-3.34289
552.8,47.9752,0.350386,-3.3452
555,48.1947,0.342931,-3.3456
557.2,48.4152,0.354559,-3.34495
559.4,48.635,0.357115,-3.34682
561.6,48.8526,0.351331,-3.34684
563.8,49.0742,0.328134,-3.34816
566,49.2936,0.287516,-3.35012
568.2,49.5141,0.251767,-3.35079
570.4,49.7332,0.21988,-3.34979
572.6,49.9529,0.199209,-3.35376
574.8,50.1723,0.191252,-3.35102
577,50.3933,0.193943,-3.35102
579.2,50.612,0.1971,-3.35069
581.4,50.8342,0.190635,-3.35332
583.6,51.0554,0.188148,-3.35215
585.8,51.2749,0.178331,-3.35508
588,51.4955,0.173796,-3.35475
590.2,51.7172,0.173753,-3.35475
592.4,51.9393,0.161063,-3.3564
594.6,52.1601,0.164063,-3.35503
596.8,52.3813,0.157987,-3.35276
599,52.6012,0.151832,-3.35639
601.2,52.8223,0.160169,-3.35665
603.4,53.0425,0.150896,-3.35538
605.6,53.265,0.152716,-3.3567
607.8,53.4848,0.152479,-3.35672
610,53.705,0.154951,-3.35804
612.2,53.9268,0.164495,-3.35573
614.4,54.1471,0.175189,-3.35672
616.6,54.3686,0.174652,-3.35936
618.8,54.5905,0.175792,-3.35936
621,54.8121,0.166845,-3.35933
623.2,55.0332,0.156755,-3.36067
625.4,55.2536,0.141166,-3.36001
627.6,55.4751,0.140566,-3.36133
629.8,55.6947,0.142094,-3.36133
632,55.916,0.129197,-3.36232
634.2,56.1381,0.124311,-3.36116
636.4,56.3576,0.108642,-3.36363
638.6,56.5801,0.0950582,-3.36491
640.8,56.8009,0.0879279,-3.36329
643,57.0222,0.0830082,-3.36463
645.2,57.2423,0.0792677,-3.36331
647.4,57.4644,0.0825135,-3.36463
649.6,57.6855,0.0826291,-3.3643
651.8,57.9089,0.0837446,-3.36397
654,58.1297,0.066167,-3.36265
656.2,58.3515,0.0560201,-3.36364
658.4,58.5722,0.0647137,-3.36367
660.6,58.7945,0.0639979,-3.36396
662.8,59.0164,0.0654717,-3.36331
665,59.2386,0.065547,-3.3646
667.2,59.4595,0.0672512,-3.36526
669.4,59.6827,0.0652673,-3.36759
671.6,59.9048,0.0583466,-3.36364
673.8,60.1254,0.052156,-3.36364
676,60.348,0.0548476,-3.36232
678.2,60.57,0.0513684,-3.36419
680.4,60.792,0.0472528,-3.36692
682.6,61.013,0.0414523,-3.36565
684.8,61.2346,0.0379848,-3.36528
687,61.4571,0.0331948,-3.36267
689.2,61.6788,0.0295051,-3.36423
690,61.76,0.0338471,-3.36371