Folder: fsri_materials_database/01_Data/Helmet_Brim_Edging/STA/N2/10K_min (part 3)

File: Helmet_Brim_Edging_STA_N2_10KData_250521_R5.csv
Temp./C,Time/min,DSC/(mW/mg),Mass loss/mg
40.0,0.0,0.697255,0.0180213
42.6,0.345127,0.743574,0.0160384
45.2,0.678381,0.786036,0.0175801
47.8,0.99568,0.821466,0.0173618
50.4,1.30439,0.86118,0.0189876
53,1.60453,0.892456,0.0200128
55.6,1.89982,0.915038,0.0176261
58.2,2.1867,0.947383,0.0186577
60.8,2.46826,0.975737,0.0199803
63.4,2.74727,1.00111,0.0197783
66,3.02034,1.02573,0.018419
68.6,3.2897,1.02772,0.0200975
71.2,3.55858,1.03936,0.0187963
73.8,3.82434,1.04894,0.0193025
76.4,4.08848,1.05508,0.0200614
79,4.35052,1.07145,0.0192113
81.6,4.61251,1.07689,0.0187725
84.2,4.8709,1.09633,0.0201216
86.8,5.13083,1.10665,0.0202148
89.4,5.38673,1.12844,0.01911
92,5.64253,1.12681,0.0201064
94.6,5.89491,1.14269,0.0187809
97.2,6.14782,1.1535,0.0208615
99.8,6.39708,1.16242,0.0196127
102.4,6.65121,1.17091,0.0182301
105,6.902,1.18068,0.0182225
107.6,7.15306,1.19356,0.0195405
110.2,7.40448,1.20729,0.0195515
112.8,7.65299,1.22573,0.0193016
115.4,7.90215,1.24149,0.0188801
118,8.15262,1.25169,0.0208599
120.6,8.39993,1.24913,0.0195472
123.2,8.65078,1.25427,0.0156829
125.8,8.90026,1.27209,0.0198866
128.4,9.1476,1.29327,0.0212858
131,9.39359,1.30553,0.0178813
133.6,9.64256,1.34098,0.0182232
136.2,9.89084,1.36446,0.0195399
138.8,10.139,1.41811,0.0195302
141.4,10.386,1.48998,0.0188158
144,10.6346,1.57857,0.0186812
146.6,10.8816,1.69765,0.0178959
149.2,11.1295,1.82673,0.0182772
151.8,11.3753,1.95041,0.0188899
154.4,11.62,1.97679,0.0189032
157,11.8639,1.77347,0.0188812
159.6,12.1054,1.50342,0.0172396
162.2,12.3484,1.39035,0.0178981
164.8,12.5932,1.35783,0.0192435
167.4,12.8387,1.35461,0.01822
170,13.0823,1.35196,0.0175452
172.6,13.3285,1.35082,0.0177613
175.2,13.5734,1.36245,0.01691
177.8,13.8178,1.36165,0.0169094
180.4,14.0629,1.36882,0.01559
183,14.3069,1.3671,0.01757
185.6,14.5514,1.37784,0.0175656
188.2,14.7956,1.3852,0.01625
190.8,15.041,1.39918,0.01757
193.4,15.2833,1.39231,0.0155017
196,15.5291,1.39627,0.01559
198.6,15.7728,1.40575,0.0136245
201.2,16.0181,1.41249,0.01427
203.8,16.2636,1.41138,0.01362
206.4,16.5068,1.42692,0.0132909
209,16.7526,1.42369,0.01461
211.6,16.9971,1.42132,0.0142485
214.2,17.2407,1.43155,0.0142703
216.8,17.486,1.45246,0.0132791
219.4,17.7307,1.44541,0.01164
222,17.9751,1.45394,0.011291
224.6,18.2211,1.4606,0.00999
227.2,18.4665,1.46548,0.00971145
229.8,18.7108,1.46845,0.00900001
232.4,18.956,1.46836,0.00868025
235,19.2022,1.47864,0.00604019
237.6,19.4469,1.48523,0.00507834
240.2,19.6921,1.47648,0.00472
242.8,19.938,1.49433,0.0034
245.4,20.1835,1.48669,0.00208
248,20.4297,1.4912,0.000801093
250.6,20.6753,1.49067,-0.00372316
253.2,20.921,1.48792,-0.00350867
255.8,21.1673,1.49676,-0.00615
258.4,21.4134,1.4989,-0.00615208
261,21.6585,1.51843,-0.00845415
263.6,21.9052,1.51451,-0.00984049
266.2,22.1494,1.51773,-0.0133904
268.8,22.3969,1.51029,-0.0132423
271.4,22.6442,1.52987,-0.0204117
274,22.8897,1.54916,-0.0232769
276.6,23.136,1.55681,-0.0257996
279.2,23.3832,1.56363,-0.0312112
281.8,23.63,1.57177,-0.0323088
284.4,23.8785,1.58517,-0.0403983
287,24.1253,1.61142,-0.0443544
289.6,24.3723,1.621,-0.0495733
292.2,24.6189,1.62192,-0.0556889
294.8,24.8668,1.63296,-0.0619076
297.4,25.1146,1.64099,-0.0700435
300,25.3611,1.68527,-0.0782485
302.6,25.609,1.7092,-0.0868864
305.2,25.8566,1.73316,-0.0995048
307.8,26.1049,1.76297,-0.108717
310.4,26.3531,1.8038,-0.12391
313,26.5999,1.79445,-0.139169
315.6,26.8467,1.62533,-0.15441
318.2,27.0936,1.59677,-0.175125
320.8,27.3413,1.59396,-0.197852
323.4,27.5903,1.61311,-0.219421
326,27.8386,1.61141,-0.245758
328.6,28.0874,1.62257,-0.274469
331.2,28.3357,1.64574,-0.307043
333.8,28.5857,1.67085,-0.343031
336.4,28.8356,1.66857,-0.384942
339,29.0846,1.67839,-0.432778
341.6,29.335,1.67836,-0.479858
344.2,29.584,1.67875,-0.54033
346.8,29.8324,1.67208,-0.602989
349.4,30.0826,1.65311,-0.67817
352,30.3328,1.63292,-0.763985
354.6,30.583,1.63328,-0.859423
357.2,30.834,1.64508,-0.964364
359.8,31.0816,1.63731,-1.0659
362.4,31.3339,1.62168,-1.16436
365,31.5838,1.61624,-1.25039
367.6,31.8343,1.59485,-1.32416
370.2,32.0844,1.5813,-1.38964
372.8,32.3355,1.55187,-1.44601
375.4,32.5873,1.529,-1.4989
378,32.8388,1.5124,-1.54673
380.6,33.0901,1.492,-1.58994
383.2,33.3424,1.47563,-1.63052
385.8,33.5951,1.46539,-1.66914
388.4,33.8451,1.44967,-1.70657
391,34.0986,1.44297,-1.7405
393.6,34.3489,1.4265,-1.77538
396.2,34.6032,1.42213,-1.80817
398.8,34.8567,1.41981,-1.84024
401.4,35.1084,1.4147,-1.87228
404,35.3607,1.42703,-1.90205
406.6,35.6141,1.42706,-1.93393
409.2,35.8659,1.42593,-1.96423
411.8,36.1189,1.43309,-1.99294
414.4,36.3727,1.43419,-2.02351
417,36.6264,1.46577,-2.05451
419.6,36.8796,1.46637,-2.0876
422.2,37.1333,1.49337,-2.11732
424.8,37.3877,1.5114,-2.14975
427.4,37.6415,1.52937,-2.1808
430,37.8967,1.55651,-2.21666
432.6,38.1506,1.58892,-2.25515
435.2,38.405,1.62156,-2.29243
437.8,38.6597,1.63755,-2.33344
440.4,38.9142,1.67892,-2.37937
443,39.1703,1.70788,-2.42354
445.6,39.4247,1.76235,-2.47369
448.2,39.6808,1.77528,-2.52821
450.8,39.9351,1.80669,-2.58505
453.4,40.1908,1.82414,-2.64601
456,40.4457,1.81894,-2.7072
458.6,40.7012,1.80648,-2.773
461.2,40.9564,1.76762,-2.84164
463.8,41.2105,1.71534,-2.90954
466.4,41.4645,1.62708,-2.97778
469,41.7193,1.51991,-3.04337
471.6,41.973,1.38501,-3.09685
474.2,42.2263,1.22222,-3.15657
476.8,42.4798,1.05296,-3.20533
479.4,42.7329,0.89962,-3.24772
482,42.9879,0.757946,-3.27035
484.6,43.2429,0.608224,-3.29115
487.2,43.4989,0.524511,-3.30723
489.8,43.754,0.461109,-3.31503
492.4,44.0093,0.438497,-3.31952
495,44.2662,0.416754,-3.32246
497.6,44.5235,0.410521,-3.32509
500.2,44.7795,0.399343,-3.32861
502.8,45.0361,0.410613,-3.32597
505.4,45.2933,0.411821,-3.32532
508,45.5506,0.418326,-3.32762
510.6,45.807,0.423573,-3.33019
513.2,46.0615,0.419156,-3.32944
515.8,46.3208,0.417618,-3.32904
518.4,46.5784,0.418312,-3.32773
521,46.8365,0.430634,-3.326
523.6,47.0925,0.430109,-3.33124
526.2,47.3514,0.428295,-3.33023
528.8,47.6096,0.435716,-3.32861
531.4,47.8678,0.427757,-3.32893
534,48.1259,0.445791,-3.32861
536.6,48.3841,0.448503,-3.32862
539.2,48.6408,0.448681,-3.32933
541.8,48.9003,0.458085,-3.33217
544.4,49.1578,0.448986,-3.33124
547,49.4152,0.457606,-3.3325
549.6,49.6736,0.470111,-3.33155
552.2,49.9323,0.473818,-3.333
554.8,50.1922,0.443566,-3.33366
557.4,50.4511,0.450428,-3.33528
560,50.71,0.452943,-3.33663
562.6,50.9698,0.455771,-3.33815
565.2,51.2293,0.46491,-3.33807
567.8,51.4884,0.472257,-3.33904
570.4,51.7478,0.481686,-3.34069
573,52.0076,0.472228,-3.34165
575.6,52.2669,0.447155,-3.34695
578.2,52.5262,0.392229,-3.34554
580.8,52.7849,0.356469,-3.34691
583.4,53.0448,0.330051,-3.34698
586,53.3043,0.315506,-3.34925
588.6,53.563,0.313506,-3.35159
591.2,53.8235,0.304612,-3.35155
593.8,54.0842,0.308383,-3.35143
596.4,54.3442,0.284217,-3.35254
599,54.6051,0.299384,-3.35287
601.6,54.8666,0.299196,-3.35287
604.2,55.1267,0.291736,-3.35373
606.8,55.3887,0.291654,-3.35418
609.4,55.6504,0.286512,-3.35644
612,55.9102,0.297897,-3.35579
614.6,56.1712,0.293853,-3.35682
617.2,56.4316,0.305465,-3.35682
619.8,56.6928,0.302049,-3.35682
622.4,56.9546,0.289738,-3.35813
625,57.2152,0.282747,-3.36078
627.6,57.4757,0.280356,-3.36012
630.2,57.7366,0.268211,-3.3601
632.8,57.9982,0.255213,-3.36074
635.4,58.2606,0.24041,-3.35621
638,58.5206,0.228663,-3.36352
640.6,58.7826,0.215163,-3.36494
643.2,59.0443,0.202314,-3.36464
645.8,59.3049,0.191388,-3.36418
648.4,59.5661,0.189002,-3.3655
651,59.8269,0.162247,-3.36552
653.6,60.089,0.160969,-3.36418
656.2,60.3501,0.162178,-3.36715
658.8,60.6111,0.150374,-3.36813
661.4,60.8709,0.156114,-3.36365
664,61.1321,0.156982,-3.36908
666.6,61.3944,0.160413,-3.36626
669.2,61.6565,0.168425,-3.3662
671.8,61.9184,0.175268,-3.36759
674.4,62.182,0.172115,-3.3666
677,62.4443,0.185191,-3.3662
679.6,62.7066,0.189153,-3.36626
682.2,62.9685,0.184355,-3.36626
684.8,63.2288,0.182271,-3.36791
687.4,63.493,0.194144,-3.36593
690,63.7546,0.180943,-3.36527
692.6,64.0157,0.186781,-3.36528
695.2,64.2782,0.203596,-3.36616
697.8,64.5412,0.217192,-3.36962
700.4,64.8035,0.220229,-3.36939
703,65.067,0.228521,-3.37001
705.6,65.3291,0.225979,-3.36999
708.2,65.5921,0.224939,-3.36736
710.8,65.8552,0.233013,-3.36868
713.4,66.1169,0.245658,-3.36867
716,66.381,0.26222,-3.36871
718.6,66.6432,0.271922,-3.36738
721.2,66.9051,0.277882,-3.36717
723.8,67.1694,0.292545,-3.37131
726.4,67.4325,0.305768,-3.37163
729,67.6954,0.320521,-3.37034
731.6,67.9585,0.335898,-3.37164
734.2,68.221,0.345324,-3.37033
736.8,68.4839,0.378235,-3.37066
739.4,68.7469,0.38401,-3.37066
742,69.0098,0.407684,-3.37173
744.6,69.2734,0.427817,-3.37296
747.2,69.5365,0.444913,-3.3723
749.8,69.8012,0.444078,-3.37294
752.4,70.064,0.461482,-3.37296
755,70.3281,0.485074,-3.37559
757.6,70.5921,0.519113,-3.3756
760.2,70.8551,0.5576,-3.37428
762.8,71.1188,0.586108,-3.3756
765.4,71.382,0.615125,-3.37823
768,71.6459,0.636993,-3.37955
770.6,71.9093,0.66435,-3.37955
773.2,72.174,0.688732,-3.38086
775.8,72.4387,0.714035,-3.38286
778.4,72.7015,0.730659,-3.38682
781,72.9661,0.733842,-3.38593
783.6,73.23,0.740627,-3.38715
786.2,73.4946,0.751067,-3.38964
788.8,73.7592,0.761252,-3.38734
790,73.8817,0.752316,-3.38869