Folder: fsri_materials_database/01_Data/Helmet_Brim_Edging/STA/N2/30K_min

File: Helmet_Brim_Edging_STA_N2_30KData_240228_R1.csv
Temp./C,Time/min,DSC/(mW/mg),Mass loss/mg
60.0,0.0,1.8425,-0.00249983
62,0.100105,2.06735,-0.00396091
64,0.194668,2.27327,-0.00490008
66,0.283854,2.45135,-0.00525834
68,0.368077,2.61126,-0.00427361
70,0.450003,2.75648,-0.0037212
72,0.528788,2.87357,-0.00359315
74,0.60634,2.97426,-0.00602221
76,0.682535,3.07108,-0.00480718
78,0.756657,3.16252,-0.00329881
80,0.830116,3.23635,-0.00392773
82,0.902463,3.31727,-0.0038581
84,0.9734,3.38339,-0.00211209
86,1.04405,3.44102,-0.00342508
88,1.11385,3.50777,-0.0024431
90,1.18279,3.55185,-0.000851181
92,1.25102,3.61468,-0.000875186
94,1.3194,3.65196,-0.000523085
96,1.3866,3.69,-1.01176e-05
98,1.45444,3.72882,-0.000975455
100,1.52139,3.7651,-0.00084004
102,1.58798,3.8062,0.000849218
104,1.65476,3.84037,0.00090769
106,1.72136,3.87075,0.000888929
108,1.78749,3.90552,0.00220982
110,1.8541,3.93054,0.00302587
112,1.92017,3.95857,0.00383415
114,1.986,3.99377,0.00506301
116,2.05209,4.03188,0.00594767
118,2.11801,4.06611,0.0063003
120,2.18425,4.11149,0.00625798
122,2.24947,4.13979,0.0075791
124,2.31541,4.17051,0.00887565
126,2.38104,4.21485,0.00889492
128,2.44629,4.25994,0.00889203
130,2.51146,4.31617,0.00808888
132,2.57643,4.38359,0.00753439
134,2.64119,4.45106,0.0102092
136,2.70608,4.56125,0.01021
138,2.77099,4.68187,0.01021
140,2.83488,4.82929,0.01021
142,2.90028,5.01332,0.01021
144,2.96491,5.22563,0.0102102
146,3.02979,5.46122,0.00871741
148,3.09408,5.72513,0.00744874
150,3.15865,5.96592,0.00613873
152,3.2227,6.10915,0.00581994
154,3.28556,6.06625,0.00575381
156,3.34752,5.81418,0.00837229
158,3.4093,5.4846,0.00689877
160,3.47016,5.22026,0.00561543
162,3.53273,5.03476,0.00489413
164,3.59492,4.90637,0.00405357
166,3.65706,4.83151,0.000603139
168,3.71926,4.78501,-0.000752882
170,3.78146,4.76968,-0.00306878
172,3.84406,4.74566,-0.00654986
174,3.90618,4.75193,-0.00770071
176,3.96839,4.76405,-0.00779048
178,4.02948,4.78548,-0.0064923
180,4.09209,4.80736,-0.00483791
182,4.15381,4.81381,-0.00484232
184,4.21531,4.83309,-0.00775732
186,4.27716,4.85112,-0.00910908
188,4.33843,4.87993,-0.00911508
190,4.39943,4.8992,-0.00778671
192,4.46069,4.92268,-0.00526019
194,4.52231,4.93017,-0.00516055
196,4.58301,4.96543,-0.00516712
198,4.6441,4.9862,-0.00515024
200,4.705,5.00563,-0.00516487
202,4.76601,5.02751,-0.00673264
204,4.8272,5.03055,-0.0120499
206,4.88797,5.064,-0.0137402
208,4.94907,5.08194,-0.011855
210,5.0098,5.10494,-0.0126134
212,5.07057,5.11899,-0.0131799
214,5.13098,5.13734,-0.0126941
216,5.19237,5.16477,-0.01252
218,5.25287,5.17863,-0.0125648
220,5.31357,5.20071,-0.0138244
222,5.37427,5.21242,-0.0118495
224,5.43473,5.23406,-0.00967078
226,5.49507,5.25361,-0.0092956
228,5.55583,5.2661,-0.0119779
230,5.61678,5.27776,-0.0164962
232,5.67677,5.29307,-0.0208017
234,5.73756,5.30252,-0.0208663
236,5.79759,5.32395,-0.02086
238,5.85818,5.33503,-0.0208342
240,5.91853,5.3504,-0.0195399
242,5.97877,5.3608,-0.0188705
244,6.03953,5.38005,-0.0180824
246,6.09939,5.39125,-0.0166844
248,6.16009,5.39763,-0.0194889
250,6.22033,5.41203,-0.0224046
252,6.28062,5.41922,-0.02395
254,6.34103,5.42919,-0.0234903
256,6.40062,5.43745,-0.0246896
258,6.46126,5.44375,-0.0234885
260,6.52195,5.4519,-0.0248087
262,6.58216,5.45757,-0.0250475
264,6.64233,5.46097,-0.0274507
266,6.70236,5.46845,-0.0274558
268,6.76276,5.47406,-0.0277895
270,6.82313,5.48164,-0.0274284
272,6.88305,5.48024,-0.0288694
274,6.94376,5.48818,-0.0296115
276,7.00412,5.49432,-0.0306215
278,7.06427,5.49625,-0.0311324
280,7.1243,5.50098,-0.0343169
282,7.1846,5.51304,-0.0378809
284,7.24488,5.5235,-0.0410659
286,7.30568,5.52138,-0.0428874
288,7.3661,5.52621,-0.044609
290,7.42647,5.53267,-0.0460326
292,7.48737,5.54908,-0.0477639
294,7.54767,5.56055,-0.0506336
296,7.60811,5.5633,-0.0538183
298,7.66882,5.57354,-0.0568745
300,7.72964,5.59146,-0.0620962
302,7.79025,5.61582,-0.0669904
304,7.85081,5.62961,-0.071608
306,7.91167,5.64924,-0.0760554
308,7.97234,5.67861,-0.0803855
310,8.03306,5.70905,-0.0845822
312,8.09404,5.74593,-0.0885682
314,8.15465,5.79224,-0.0908375
316,8.21547,5.80901,-0.0943839
318,8.27619,5.74684,-0.10322
320,8.33595,5.53106,-0.109224
322,8.39654,5.39553,-0.114905
324,8.45685,5.31067,-0.120574
326,8.51739,5.25148,-0.130517
328,8.57829,5.20357,-0.138604
330,8.63886,5.18371,-0.144769
332,8.69976,5.17767,-0.154676
334,8.76076,5.16563,-0.16285
336,8.82111,5.15892,-0.174719
338,8.88255,5.16515,-0.188112
340,8.94361,5.16474,-0.201655
342,9.00454,5.15325,-0.218296
344,9.0653,5.14521,-0.239194
346,9.12656,5.12206,-0.258088
348,9.18756,5.08376,-0.278069
350,9.24862,5.04221,-0.299124
352,9.30965,5.01277,-0.326244
354,9.37123,4.96904,-0.354223
356,9.43231,4.92523,-0.385171
358,9.49336,4.87701,-0.418589
360,9.55428,4.82538,-0.459567
362,9.6159,4.81179,-0.509059
364,9.67749,4.79249,-0.569196
366,9.73922,4.78461,-0.642
368,9.80043,4.75328,-0.718878
370,9.86172,4.628,-0.802119
372,9.92262,4.4489,-0.878465
374,9.98367,4.34405,-0.952017
376,10.0456,4.31676,-1.01224
378,10.1076,4.35073,-1.07063
380,10.1694,4.4052,-1.11727
382,10.2315,4.46725,-1.1567
384,10.2934,4.52654,-1.19387
386,10.355,4.57439,-1.22724
388,10.4173,4.60441,-1.26324
390,10.4794,4.62293,-1.296
392,10.5413,4.62996,-1.32852
394,10.6036,4.63252,-1.36001
396,10.6658,4.62731,-1.3932
398,10.7276,4.61532,-1.42264
400,10.7898,4.59774,-1.45319
402,10.8521,4.58574,-1.48167
404,10.9143,4.57797,-1.50974
406,10.9758,4.55427,-1.536
408,11.0388,4.53338,-1.56396
410,11.1004,4.51546,-1.59136
412,11.1631,4.50779,-1.61702
414,11.2257,4.49024,-1.64621
416,11.2886,4.47806,-1.67299
418,11.351,4.46086,-1.70089
420,11.4134,4.45285,-1.72719
422,11.476,4.45066,-1.75137
424,11.5385,4.44764,-1.77822
426,11.6015,4.4464,-1.80415
428,11.6645,4.45782,-1.83057
430,11.7271,4.45633,-1.85705
432,11.7901,4.47066,-1.88041
434,11.8529,4.48088,-1.90383
436,11.916,4.49249,-1.93051
438,11.9791,4.51718,-1.95803
440,12.0423,4.53261,-1.98585
442,12.1055,4.54913,-2.01544
444,12.1682,4.58302,-2.04149
446,12.2319,4.61337,-2.06919
448,12.2952,4.64275,-2.09623
450,12.3586,4.68066,-2.1239
452,12.422,4.72621,-2.15285
454,12.4855,4.78336,-2.18177
456,12.5491,4.84688,-2.21369
458,12.6129,4.897,-2.24493
460,12.6766,4.96195,-2.27921
462,12.7398,5.02915,-2.31304
464,12.804,5.08442,-2.3492
466,12.8679,5.15899,-2.38886
468,12.9312,5.2192,-2.42989
470,12.9958,5.27286,-2.47284
472,13.0593,5.30315,-2.51176
474,13.1233,5.33256,-2.55346
476,13.1874,5.34481,-2.59896
478,13.2511,5.32736,-2.64334
480,13.315,5.29404,-2.6913
482,13.379,5.22801,-2.7425
484,13.4427,5.13265,-2.79235
486,13.5065,4.99586,-2.8458
488,13.5699,4.84099,-2.89821
490,13.6335,4.63482,-2.95166
492,13.6968,4.39321,-3.00575
494,13.7597,4.1196,-3.05269
496,13.823,3.79255,-3.09992
498,13.8857,3.44455,-3.14183
500,13.9481,3.0511,-3.18177
502,14.0107,2.64003,-3.21565
504,14.0732,2.20875,-3.24447
506,14.1359,1.79457,-3.27012
508,14.1984,1.44809,-3.2915
510,14.2613,1.17326,-3.30868
512,14.3246,0.959163,-3.32225
514,14.3879,0.797221,-3.33424
516,14.4514,0.670595,-3.33948
518,14.5148,0.574695,-3.34081
520,14.579,0.509008,-3.3416
522,14.6426,0.457703,-3.34211
524,14.7066,0.441172,-3.34515
526,14.7715,0.427214,-3.34816
528,14.8356,0.425231,-3.34732
530,14.9,0.426034,-3.34816
532,14.9646,0.427408,-3.34827
534,15.0288,0.434469,-3.34948
536,15.0935,0.445125,-3.35079
538,15.1579,0.456815,-3.35113
540,15.2224,0.465538,-3.35211
542,15.2871,0.481926,-3.35211
544,15.3519,0.492097,-3.35211
546,15.4168,0.504314,-3.35081
548,15.4809,0.511912,-3.35081
550,15.5465,0.513752,-3.35182
552,15.6112,0.525321,-3.35308
554,15.6758,0.535163,-3.35442
556,15.741,0.543017,-3.35528
558,15.806,0.551951,-3.35475
560,15.8711,0.561908,-3.35344
562,15.9361,0.577455,-3.35342
564,16.0018,0.597837,-3.3531
566,16.0667,0.61346,-3.35178
568,16.1321,0.629349,-3.35353
570,16.1969,0.642666,-3.35712
572,16.2623,0.663121,-3.36035
574,16.3277,0.684197,-3.36341
576,16.3931,0.713809,-3.36572
578,16.4588,0.740738,-3.36897
580,16.5244,0.780769,-3.36879
582,16.5897,0.814874,-3.36745
584,16.6555,0.815076,-3.3667
586,16.721,0.782096,-3.36487
588,16.7861,0.698834,-3.36609
590,16.8515,0.606733,-3.36759
592,16.9167,0.504323,-3.36759
594,16.9823,0.427999,-3.36891
596,17.0473,0.354874,-3.37155
598,17.1131,0.288353,-3.37308
600,17.1787,0.231862,-3.37206
602,17.2443,0.177144,-3.3729
604,17.3102,0.126282,-3.37356
606,17.3756,0.0734079,-3.37691
608,17.4409,0.0398601,-3.37813
610,17.5072,0.00363381,-3.37944
612,17.5731,-0.0312494,-3.37944
614,17.6383,-0.0456611,-3.37826
616,17.7047,-0.0577126,-3.37703
618,17.7706,-0.0769998,-3.37845
620,17.8366,-0.093339,-3.37978
622,17.9026,-0.104204,-3.3798
624,17.9688,-0.120084,-3.37883
626,18.0348,-0.130882,-3.37595
628,18.1005,-0.138707,-3.37372
630,18.1668,-0.144757,-3.37456
632,18.2331,-0.158686,-3.37506
634,18.2992,-0.170585,-3.37613
636,18.3655,-0.178249,-3.37499
638,18.4317,-0.185549,-3.37637
640,18.4977,-0.196621,-3.37778

File: Helmet_Brim_Edging_STA_N2_30KData_250522_R2.csv
Temp./C,Time/min,DSC/(mW/mg),Mass loss/mg
40.0,0.0,1.41307,-0.0104102
42.6,0.159381,1.67128,-0.0120797
45.2,0.303777,1.90504,-0.00980527
47.8,0.438027,2.09009,-0.0141963
50.4,0.564704,2.27892,-0.00771617
53,0.685364,2.43144,-0.0179109
55.6,0.802513,2.56248,-0.0144182
58.2,0.916323,2.69084,-0.0142737
60.8,1.0259,2.80338,-0.0151002
63.4,1.13253,2.9218,-0.0166813
66,1.23933,3.03383,-0.0160559
68.6,1.34356,3.13438,-0.0158047
71.2,1.4454,3.22793,-0.0155867
73.8,1.54708,3.30955,-0.016241
76.4,1.64695,3.3605,-0.0175052
79,1.74619,3.43232,-0.0162946
81.6,1.84403,3.50237,-0.0150772
84.2,1.94057,3.57093,-0.0162637
86.8,2.03601,3.65156,-0.0161465
89.4,2.13097,3.71404,-0.0187776
92,2.22441,3.784,-0.0188358
94.6,2.31673,3.8526,-0.0174267
97.2,2.40893,3.92794,-0.0172742
99.8,2.50009,3.99554,-0.0159776
102.4,2.59036,4.05151,-0.0158298
105,2.68006,4.12507,-0.0179771
107.6,2.76954,4.20779,-0.0160666
110.2,2.85881,4.28756,-0.0186217
112.8,2.9472,4.37199,-0.0186488
115.4,3.03589,4.45321,-0.0175371
118,3.12338,4.51428,-0.01735
120.6,3.21023,4.5526,-0.0174112
123.2,3.29745,4.61935,-0.0179625
125.8,3.38367,4.70043,-0.01735
128.4,3.46961,4.79529,-0.0160252
131,3.55494,4.88154,-0.0186737
133.6,3.63985,4.99235,-0.0186771
136.2,3.72412,5.15719,-0.0173514
138.8,3.80857,5.35503,-0.0174329
141.4,3.89186,5.61046,-0.01735
144,3.97604,5.91584,-0.0173501
146.6,4.05998,6.26422,-0.0186704
149.2,4.14349,6.61304,-0.0173385
151.8,4.22565,6.8232,-0.0173397
154.4,4.30697,6.68279,-0.0163603
157,4.38648,6.28084,-0.0153624
159.6,4.46581,5.97673,-0.0166951
162.2,4.54475,5.7803,-0.01669
164.8,4.62572,5.68048,-0.0166901
167.4,4.70536,5.63056,-0.0180158
170,4.78558,5.62909,-0.0180094
172.6,4.86544,5.64542,-0.0170189
175.2,4.94523,5.66814,-0.01702
177.8,5.02466,5.69565,-0.0170275
180.4,5.10388,5.73051,-0.0158255
183,5.18317,5.78211,-0.0173495
185.6,5.26193,5.81602,-0.0176193
188.2,5.34046,5.85499,-0.0170201
190.8,5.41884,5.8986,-0.01702
193.4,5.49732,5.94425,-0.01702
196,5.57536,5.97918,-0.01702
198.6,5.65348,6.01969,-0.017021
201.2,5.73133,6.0585,-0.0160325
203.8,5.80906,6.09129,-0.0170102
206.4,5.88686,6.13755,-0.0157445
209,5.96466,6.17316,-0.0170691
211.6,6.0419,6.21446,-0.01703
214.2,6.11982,6.24643,-0.01703
216.8,6.19715,6.28264,-0.0179999
219.4,6.2742,6.31482,-0.01834
222,6.3517,6.35608,-0.0183593
224.6,6.42909,6.38741,-0.018346
227.2,6.50637,6.42843,-0.0171965
229.8,6.58335,6.4664,-0.0172397
232.4,6.66059,6.4955,-0.0185603
235,6.7375,6.53052,-0.0185779
237.6,6.81426,6.56361,-0.0224808
240.2,6.89166,6.59643,-0.0200191
242.8,6.96854,6.62271,-0.0184492
245.4,7.04559,6.64679,-0.0184538
248,7.12225,6.67536,-0.0209438
250.6,7.19921,6.70728,-0.0210323
253.2,7.27612,6.72784,-0.0212629
255.8,7.35308,6.7509,-0.02109
258.4,7.42984,6.77264,-0.0224089
261,7.5063,6.80109,-0.0237265
263.6,7.58299,6.81518,-0.0223928
266.2,7.66,6.85007,-0.0237033
268.8,7.73692,6.8741,-0.0244372
271.4,7.81363,6.90069,-0.0263491
274,7.89037,6.92518,-0.0263561
276.6,7.96718,6.94992,-0.0276713
279.2,8.04394,6.98231,-0.0289917
281.8,8.12091,7.00867,-0.0289554
284.4,8.19741,7.05114,-0.0305075
287,8.2745,7.08347,-0.033066
289.6,8.35123,7.1178,-0.0344839
292.2,8.42807,7.14373,-0.0347471
294.8,8.50519,7.19343,-0.0359511
297.4,8.58164,7.23474,-0.0399718
300,8.65895,7.28504,-0.042876
302.6,8.73605,7.33238,-0.0435743
305.2,8.81334,7.38741,-0.0462317
307.8,8.89051,7.45817,-0.0507153
310.4,8.9676,7.53697,-0.0533554
313,9.0449,7.61847,-0.0591342
315.6,9.12209,7.66037,-0.0625854
318.2,9.19894,7.51065,-0.0664511
320.8,9.27533,7.30598,-0.0727928
323.4,9.35199,7.1943,-0.0808309
326,9.42896,7.14359,-0.0880678
328.6,9.50649,7.11323,-0.0980095
331.2,9.58361,7.11756,-0.109559
333.8,9.66077,7.13344,-0.120903
336.4,9.73863,7.14285,-0.133704
339,9.8164,7.14833,-0.149449
341.6,9.89369,7.14203,-0.167095
344.2,9.97166,7.14415,-0.185485
346.8,10.0489,7.12571,-0.206019
349.4,10.1267,7.10271,-0.228161
352,10.2042,7.07587,-0.257595
354.6,10.2822,7.03466,-0.28712
357.2,10.36,6.997,-0.319013
359.8,10.4379,6.97211,-0.356576
362.4,10.5157,6.94606,-0.40141
365,10.594,6.92257,-0.45902
367.6,10.672,6.89348,-0.531227
370.2,10.7504,6.82615,-0.617218
372.8,10.8274,6.67053,-0.713659
375.4,10.9056,6.42171,-0.814451
378,10.9833,6.23975,-0.906372
380.6,11.0619,6.19242,-0.989228
383.2,11.1404,6.22301,-1.05947
385.8,11.2194,6.27578,-1.11974
388.4,11.2983,6.29854,-1.17257
391,11.3774,6.31857,-1.22184
393.6,11.4563,6.30407,-1.26738
396.2,11.5351,6.28389,-1.31209
398.8,11.6145,6.25054,-1.35304
401.4,11.6937,6.22034,-1.39428
404,11.7731,6.18869,-1.4341
406.6,11.8524,6.16109,-1.4751
409.2,11.932,6.1198,-1.51456
411.8,12.0114,6.1036,-1.55254
414.4,12.0912,6.08848,-1.59159
417,12.171,6.07369,-1.63141
419.6,12.251,6.06303,-1.6685
422.2,12.3307,6.06026,-1.70719
424.8,12.4109,6.06604,-1.74689
427.4,12.4909,6.07597,-1.78415
430,12.5706,6.10504,-1.82158
432.6,12.6517,6.12238,-1.86006
435.2,12.7322,6.15617,-1.89947
437.8,12.813,6.19412,-1.93738
440.4,12.8934,6.23892,-1.97547
443,12.9744,6.29317,-2.01675
445.6,13.0552,6.36101,-2.05778
448.2,13.1361,6.4235,-2.09888
450.8,13.217,6.49808,-2.14128
453.4,13.2981,6.56704,-2.1863
456,13.3797,6.66305,-2.23318
458.6,13.4609,6.74465,-2.28011
461.2,13.5423,6.83507,-2.33039
463.8,13.6237,6.92455,-2.38434
466.4,13.7054,6.99725,-2.44088
469,13.7866,7.05511,-2.49439
471.6,13.8683,7.07665,-2.56299
474.2,13.9496,7.06902,-2.63103
476.8,14.0304,7.01883,-2.69312
479.4,14.1121,6.91826,-2.7611
482,14.1933,6.75022,-2.83404
484.6,14.2742,6.52699,-2.90526
487.2,14.3547,6.20846,-2.97492
489.8,14.4354,5.84059,-3.0432
492.4,14.5157,5.40052,-3.10728
495,14.5961,4.92124,-3.16531
497.6,14.6762,4.41443,-3.21696
500.2,14.7568,3.90568,-3.2637
502.8,14.8369,3.40187,-3.30047
505.4,14.9175,2.95443,-3.32764
508,14.9982,2.60903,-3.34904
510.6,15.0795,2.36284,-3.36278
513.2,15.1615,2.19593,-3.37162
515.8,15.2437,2.07187,-3.37527
518.4,15.326,1.9928,-3.3786
521,15.4085,1.93988,-3.38119
523.6,15.4908,1.91454,-3.38275
526.2,15.5737,1.89396,-3.38449
528.8,15.6568,1.88593,-3.38449
531.4,15.7394,1.88459,-3.38555
534,15.8227,1.88136,-3.38505
536.6,15.9058,1.89601,-3.38163
539.2,15.9889,1.89054,-3.38304
541.8,16.0719,1.8897,-3.38296
544.4,16.155,1.90234,-3.38332
547,16.238,1.9091,-3.38428
549.6,16.3215,1.91803,-3.38428
552.2,16.405,1.9257,-3.38559
554.8,16.4881,1.9468,-3.38559
557.4,16.5715,1.94625,-3.38559
560,16.6551,1.97171,-3.38567
562.6,16.7388,2.01107,-3.38626
565.2,16.8226,2.03805,-3.38259
567.8,16.906,2.07831,-3.3907
570.4,16.9902,2.12038,-3.39064
573,17.0737,2.14516,-3.39069
575.6,17.1579,2.17727,-3.39037
578.2,17.2418,2.21993,-3.39044
580.8,17.3259,2.25184,-3.39162
583.4,17.4101,2.3043,-3.39508
586,17.4943,2.37441,-3.3946
588.6,17.5786,2.43435,-3.39632
591.2,17.6628,2.47876,-3.39873
593.8,17.7471,2.45024,-3.3987
596.4,17.8307,2.3327,-3.40287
599,17.9147,2.23248,-3.40289
601.6,17.9989,2.14601,-3.4041
604.2,18.0827,2.08145,-3.40445
606.8,18.1672,2.01875,-3.40712
609.4,18.2513,1.96279,-3.4078
612,18.3359,1.91894,-3.40663
614.6,18.4205,1.90086,-3.40766
617.2,18.5043,1.88576,-3.40702
619.8,18.5895,1.85885,-3.40831
622.4,18.6741,1.84711,-3.41029
625,18.7588,1.82032,-3.41161
627.6,18.8438,1.80563,-3.41165
630.2,18.9286,1.76987,-3.41162
632.8,19.0135,1.72847,-3.41293
635.4,19.0981,1.71011,-3.41293
638,19.1832,1.67946,-3.41372
640.6,19.2681,1.65007,-3.41359
643.2,19.3525,1.6231,-3.41357
645.8,19.4382,1.59316,-3.41426
648.4,19.5234,1.56641,-3.41558
651,19.6083,1.544,-3.41589
653.6,19.6936,1.51818,-3.41588
656.2,19.7789,1.47738,-3.41688
658.8,19.8641,1.45337,-3.41688
661.4,19.9496,1.43022,-3.41817
664,20.0346,1.40484,-3.41721
666.6,20.1203,1.3694,-3.41826
669.2,20.2053,1.32778,-3.41916
671.8,20.2909,1.30024,-3.41909
674.4,20.3761,1.2622,-3.41829
677,20.4619,1.21918,-3.41952
679.6,20.5471,1.18609,-3.41815
682.2,20.6325,1.14579,-3.41817
684.8,20.718,1.08992,-3.41952
687.4,20.8033,1.04611,-3.42084
690,20.889,1.01183,-3.42215
692.6,20.9746,0.969562,-3.42217
695.2,21.0602,0.938201,-3.42084
697.8,21.1457,0.904254,-3.42084
700.4,21.2316,0.877639,-3.42083
703,21.3172,0.859534,-3.42083
705.6,21.4029,0.841342,-3.42149
708.2,21.4888,0.821173,-3.42052
710.8,21.5746,0.802592,-3.42223
713.4,21.6605,0.782594,-3.42264
716,21.7463,0.762415,-3.42248
718.6,21.8321,0.752803,-3.42248
721.2,21.9182,0.74598,-3.42374
723.8,22.0042,0.72724,-3.4238
726.4,22.0903,0.711044,-3.42248
729,22.1763,0.707747,-3.42183
731.6,22.2626,0.70248,-3.42246
734.2,22.3486,0.680695,-3.42248
736.8,22.4346,0.682315,-3.42248
739.4,22.5207,0.680496,-3.42248
742,22.6071,0.673638,-3.42248
744.6,22.693,0.662518,-3.42283
747.2,22.7798,0.648381,-3.42249
749.8,22.8664,0.644364,-3.42443
752.4,22.9527,0.652899,-3.42308
755,23.0393,0.677138,-3.42314
757.6,23.1257,0.712607,-3.42446
760.2,23.2125,0.753304,-3.42577
762.8,23.299,0.792855,-3.42579
765.4,23.3855,0.811029,-3.4271
768,23.4724,0.836047,-3.42709
770.6,23.559,0.836546,-3.42895
773.2,23.6456,0.840431,-3.43017
775.8,23.732,0.856475,-3.43138
778.4,23.8187,0.868165,-3.43395
781,23.9052,0.862158,-3.4345
783.6,23.9918,0.872286,-3.43621
786.2,24.0788,0.883342,-3.43757
788.8,24.1655,0.882649,-3.43791
790,24.2053,0.885828,-3.43881