Folder: fsri_materials_database/01_Data/Helmet_Brim_Edging/STA/N2/30K_min (part 2)

File: Helmet_Brim_Edging_STA_N2_30KData_250626_R3.csv
Temp./C,Time/min,DSC/(mW/mg),Mass loss/mg
60.0,0.0,1.48747,-0.00542262
62.2,0.132402,1.6969,-0.00563066
64.4,0.253702,1.87325,-0.00320312
66.6,0.36642,2.03634,-0.00629238
68.8,0.47346,2.17916,-0.00571013
71,0.576706,2.30929,-0.00654153
73.2,0.675903,2.41576,-0.00881192
75.4,0.772996,2.51842,-0.00305831
77.6,0.866652,2.59365,-0.00373932
79.8,0.958355,2.66631,-0.00536986
82,1.04928,2.73012,-0.00553784
84.2,1.1376,2.79573,-0.00651337
86.4,1.22479,2.85708,-0.00590202
88.6,1.31012,2.91635,-0.00640223
90.8,1.39549,2.98324,-0.00691135
93,1.47986,3.04129,-0.00647692
95.2,1.56183,3.09165,-0.006713
97.4,1.64412,3.13461,-0.00710656
99.6,1.72477,3.18967,-0.0065957
101.8,1.80495,3.24241,-0.00682665
104,1.88477,3.29359,-0.00746698
106.2,1.96423,3.34414,-0.00820084
108.4,2.04304,3.40378,-0.00823174
110.6,2.12149,3.47215,-0.0082013
112.8,2.19911,3.53286,-0.00795292
115,2.27609,3.61202,-0.00903492
117.2,2.35413,3.69296,-0.00962121
119.4,2.43113,3.74881,-0.0091828
121.6,2.50686,3.76307,-0.00952631
123.8,2.58257,3.79157,-0.00959537
126,2.65813,3.85327,-0.0095341
128.2,2.73292,3.90867,-0.00951739
130.4,2.80776,3.96455,-0.00954955
132.6,2.8816,4.03468,-0.00848929
134.8,2.95558,4.13911,-0.00955292
137,3.02895,4.26701,-0.00831566
139.2,3.10198,4.42053,-0.0087746
141.4,3.17544,4.63792,-0.00790898
143.6,3.24835,4.88744,-0.00691555
145.8,3.32116,5.17074,-0.00827895
148,3.39353,5.45402,-0.00995622
150.2,3.46525,5.6844,-0.012103
152.4,3.53594,5.74654,-0.00950668
154.6,3.60582,5.47872,-0.00954997
156.8,3.67415,5.11453,-0.0109284
159,3.74351,4.83535,-0.00960191
161.2,3.81223,4.65243,-0.0085598
163.4,3.8815,4.55023,-0.0103233
165.6,3.95034,4.48263,-0.011197
167.8,4.01942,4.44341,-0.0111643
170,4.08854,4.44081,-0.01119
172.2,4.15756,4.4388,-0.01119
174.4,4.22504,4.43663,-0.01119
176.6,4.29443,4.45341,-0.0112424
178.8,4.36241,4.47048,-0.0111997
181,4.43098,4.49509,-0.0111956
183.2,4.49845,4.52736,-0.01087
185.4,4.56592,4.5507,-0.0108718
187.6,4.63336,4.5745,-0.0121778
189.8,4.7007,4.59279,-0.01218
192,4.76784,4.62115,-0.0121805
194.2,4.8349,4.6404,-0.0108611
196.4,4.90163,4.66747,-0.0108703
198.6,4.9679,4.67318,-0.0121845
200.8,5.03483,4.70214,-0.0124887
203,5.10132,4.71617,-0.0125191
205.2,5.16777,4.7554,-0.0128401
207.4,5.23413,4.75024,-0.0128025
209.6,5.30043,4.76327,-0.0141599
211.8,5.36673,4.78453,-0.01416
214,5.43288,4.80041,-0.01416
216.2,5.49897,4.81521,-0.01416
218.4,5.5651,4.82974,-0.0141609
220.6,5.63091,4.85062,-0.0153815
222.8,5.69689,4.86243,-0.01482
225,5.76274,4.88087,-0.0161936
227.2,5.82885,4.90112,-0.018007
229.4,5.89433,4.91419,-0.0164545
231.6,5.96029,4.93067,-0.0154803
233.8,6.02584,4.93994,-0.0154763
236,6.09161,4.95463,-0.0167953
238.2,6.15715,4.96925,-0.0181103
240.4,6.2219,4.97772,-0.01811
242.6,6.28828,4.99575,-0.0180217
244.8,6.35381,5.00657,-0.01943
247,6.41924,5.02845,-0.0194313
249.2,6.48465,5.04088,-0.0210847
251.4,6.55011,5.0548,-0.0217287
253.6,6.6155,5.07162,-0.021072
255.8,6.6811,5.08905,-0.0209356
258,6.7466,5.09027,-0.0218415
260.2,6.81139,5.1031,-0.0244701
262.4,6.87698,5.12446,-0.0253563
264.6,6.9423,5.14756,-0.0264437
266.8,7.00721,5.16875,-0.0276739
269,7.07325,5.17982,-0.0289596
271.2,7.13797,5.18918,-0.0296262
273.4,7.20343,5.21253,-0.0309476
275.6,7.26891,5.22575,-0.0321451
277.8,7.33412,5.2428,-0.0335935
280,7.3996,5.26829,-0.0348595
282.2,7.46474,5.29004,-0.0378804
284.4,7.53001,5.29079,-0.0377814
286.6,7.59532,5.32295,-0.0398827
288.8,7.66079,5.33859,-0.0417203
291,7.72567,5.36695,-0.044438
293.2,7.79205,5.39221,-0.0471595
295.4,7.85698,5.4048,-0.0490625
297.6,7.92218,5.42667,-0.0527356
299.8,7.9879,5.46624,-0.0552767
302,8.05341,5.48204,-0.0588024
304.2,8.1186,5.51391,-0.0623657
306.4,8.18418,5.57334,-0.0668851
308.6,8.24975,5.60722,-0.0722576
310.8,8.31529,5.65998,-0.0765557
313,8.38104,5.70999,-0.0814764
315.2,8.44662,5.75365,-0.0875953
317.4,8.51181,5.63375,-0.0929907
319.6,8.57654,5.41169,-0.0990663
321.8,8.64173,5.29487,-0.106484
324,8.7069,5.21444,-0.114144
326.2,8.77243,5.19475,-0.123894
328.4,8.83774,5.17195,-0.133557
330.6,8.90346,5.155,-0.144119
332.8,8.96883,5.1471,-0.156633
335,9.03449,5.14133,-0.170871
337.2,9.10028,5.1442,-0.184994
339.4,9.16635,5.14384,-0.201403
341.6,9.23172,5.1473,-0.219105
343.8,9.29765,5.1557,-0.237847
346,9.36365,5.1709,-0.259456
348.2,9.42971,5.16084,-0.281584
350.4,9.49532,5.12144,-0.305938
352.6,9.56125,5.08628,-0.336148
354.8,9.62727,5.0446,-0.365853
357,9.69292,5.00358,-0.398251
359.2,9.7592,4.98204,-0.434822
361.4,9.82517,4.93832,-0.475155
363.6,9.89147,4.88905,-0.522796
365.8,9.95737,4.84836,-0.583541
368,10.0237,4.83894,-0.649633
370.2,10.0898,4.81202,-0.731242
372.4,10.1561,4.71638,-0.821642
374.6,10.2212,4.57005,-0.909043
376.8,10.2881,4.42978,-0.999535
379,10.3538,4.36053,-1.07632
381.2,10.4205,4.35516,-1.14491
383.4,10.4873,4.39904,-1.20459
385.6,10.5542,4.45084,-1.25722
387.8,10.6212,4.48126,-1.30369
390,10.6879,4.49213,-1.34766
392.2,10.7547,4.496,-1.38845
394.4,10.8219,4.47688,-1.42673
396.6,10.8888,4.45233,-1.46596
398.8,10.9558,4.414,-1.50182
401,11.0231,4.37804,-1.53543
403.2,11.0899,4.34999,-1.57056
405.4,11.1573,4.32315,-1.605
407.6,11.2245,4.29185,-1.63884
409.8,11.2918,4.26744,-1.67208
412,11.3591,4.23869,-1.70398
414.2,11.4267,4.22454,-1.73434
416.4,11.4943,4.21345,-1.76559
418.6,11.5621,4.20886,-1.79727
420.8,11.6296,4.20446,-1.8271
423,11.6974,4.20769,-1.86095
425.2,11.7653,4.21285,-1.88829
427.4,11.833,4.22867,-1.91858
429.6,11.901,4.24907,-1.94733
431.8,11.9682,4.27503,-1.97875
434,12.0371,4.29169,-2.01069
436.2,12.1054,4.32385,-2.04111
438.4,12.1734,4.35482,-2.07273
440.6,12.2416,4.40126,-2.10401
442.8,12.3099,4.44424,-2.13577
445,12.3784,4.4894,-2.16945
447.2,12.4468,4.53593,-2.20313
449.4,12.5152,4.60302,-2.23815
451.6,12.5837,4.65124,-2.27285
453.8,12.6522,4.70273,-2.31026
456,12.7209,4.75962,-2.34884
458.2,12.7892,4.80567,-2.38744
460.4,12.8585,4.87308,-2.4287
462.6,12.9275,4.93852,-2.47241
464.8,12.9961,4.9919,-2.51752
467,13.065,5.03927,-2.56322
469.2,13.134,5.07314,-2.61341
471.4,13.2026,5.09879,-2.66359
473.6,13.2717,5.05903,-2.71592
475.8,13.3404,5.04242,-2.77137
478,13.4093,4.96679,-2.82987
480.2,13.4771,4.86578,-2.88646
482.4,13.5461,4.71283,-2.94376
484.6,13.615,4.53097,-3.00522
486.8,13.6833,4.293,-3.06459
489,13.7514,3.98535,-3.11789
491.2,13.8195,3.66758,-3.17198
493.4,13.8878,3.28209,-3.22432
495.6,13.9558,2.86787,-3.27217
497.8,14.0238,2.46088,-3.31354
500,14.0915,2.03656,-3.35066
502.2,14.1596,1.61545,-3.38179
504.4,14.2279,1.21849,-3.40655
506.6,14.2965,0.891663,-3.4269
508.8,14.3651,0.6646,-3.442
511,14.4344,0.476693,-3.44946
513.2,14.5035,0.358485,-3.45636
515.4,14.5735,0.251338,-3.4617
517.6,14.6426,0.186304,-3.464
519.8,14.7123,0.138248,-3.4656
522,14.7821,0.116948,-3.46694
524.2,14.8517,0.0960578,-3.46957
526.4,14.9216,0.0918654,-3.47089
528.6,14.9919,0.0933982,-3.47089
530.8,15.0618,0.0977537,-3.47089
533,15.1321,0.0781844,-3.47089
535.2,15.202,0.0690453,-3.47221
537.4,15.2723,0.0613471,-3.47353
539.6,15.3422,0.052963,-3.47221
541.8,15.4127,0.0641634,-3.47352
544,15.4829,0.075771,-3.47246
546.2,15.5535,0.0897389,-3.47221
548.4,15.6235,0.0835811,-3.47221
550.6,15.6941,0.107655,-3.47215
552.8,15.7642,0.118897,-3.4722
555,15.8345,0.124005,-3.47316
557.2,15.9052,0.142982,-3.47352
559.4,15.9755,0.158206,-3.4735
561.6,16.0462,0.170317,-3.47545
563.8,16.1168,0.176793,-3.4755
566,16.1871,0.225558,-3.47553
568.2,16.2578,0.244469,-3.47682
570.4,16.3282,0.266457,-3.47635
572.6,16.3992,0.291931,-3.47698
574.8,16.4698,0.315749,-3.47945
577,16.5406,0.32006,-3.48077
579.2,16.6115,0.360368,-3.48017
581.4,16.6822,0.430843,-3.48087
583.6,16.7533,0.493916,-3.48208
585.8,16.8243,0.553659,-3.48355
588,16.8951,0.604222,-3.48624
590.2,16.9664,0.619575,-3.48623
592.4,17.0369,0.559918,-3.48826
594.6,17.1077,0.454616,-3.48968
596.8,17.1783,0.356496,-3.49087
599,17.2493,0.270125,-3.4924
601.2,17.3202,0.216405,-3.4935
603.4,17.3911,0.17219,-3.49482
605.6,17.4623,0.119678,-3.49495
607.8,17.5334,0.0632465,-3.49547
610,17.6048,0.0410739,-3.49529
612.2,17.6761,0.0305868,-3.49582
614.4,17.7473,0.00714099,-3.49581
616.6,17.8191,-0.000184438,-3.49581
618.8,17.8904,-0.0260666,-3.49713
621,17.9615,-0.0401052,-3.49848
623.2,18.0334,-0.069004,-3.49802
625.4,18.1045,-0.0859283,-3.49816
627.6,18.1762,-0.112936,-3.50074
629.8,18.2476,-0.129088,-3.50075
632,18.3193,-0.149257,-3.4994
634.2,18.3909,-0.172106,-3.50075
636.4,18.4628,-0.210407,-3.50078
638.6,18.5346,-0.200757,-3.50304
640.8,18.6059,-0.203568,-3.50207
643,18.6775,-0.218904,-3.50207
645.2,18.7495,-0.233595,-3.50207
647.4,18.8214,-0.242835,-3.50338
649.6,18.8931,-0.260756,-3.50471
651.8,18.965,-0.274416,-3.50376
654,19.0365,-0.287538,-3.5047
656.2,19.1087,-0.30427,-3.50465
658.4,19.1809,-0.333445,-3.50571
660.6,19.2525,-0.363604,-3.50504
662.8,19.3243,-0.369865,-3.50534
665,19.3965,-0.393109,-3.50612
667.2,19.4684,-0.427992,-3.50832
669.4,19.5405,-0.427952,-3.50702
671.6,19.6126,-0.443642,-3.50702
673.8,19.6847,-0.488875,-3.50833
676,19.7569,-0.516927,-3.50721
678.2,19.8289,-0.533456,-3.50701
680.4,19.9011,-0.552304,-3.50833
682.6,19.9732,-0.553986,-3.50833
684.8,20.0447,-0.578274,-3.50845
687,20.1174,-0.578748,-3.50733
689.2,20.1899,-0.587511,-3.50733
690,20.2162,-0.598592,-3.50733