Folder: fsri_materials_database/01_Data/Two_Layer_Turnout_Gear_Moisture_Barrier/STA/N2/10K_min

File: Two_Layer_Turnout_Gear_Moisture_Barrier_STA_N2_10KData_240521_R1.csv
Temp./C,Time/min,DSC/(mW/mg),Mass loss/mg
60.0,0.0,0.85659,-0.0192619
62.5,0.280584,0.937756,-0.0206098
65,0.553417,0.99608,-0.0211686
67.5,0.819188,1.04694,-0.0235897
70,1.08686,1.10245,-0.02492
72.5,1.34845,1.14882,-0.0268911
75,1.60826,1.18285,-0.0263143
77.5,1.86892,1.21195,-0.0275594
80,2.1264,1.24103,-0.0302014
82.5,2.38209,1.25506,-0.0305084
85,2.63429,1.26781,-0.0341424
87.5,2.88641,1.27085,-0.0354476
90,3.13273,1.26375,-0.0368556
92.5,3.38269,1.25871,-0.0380975
95,3.62882,1.24223,-0.0394439
97.5,3.87407,1.2163,-0.0407016
100,4.11828,1.19436,-0.0413884
102.5,4.36242,1.17558,-0.0417281
105,4.60573,1.15581,-0.0433618
107.5,4.84898,1.13344,-0.0446646
110,5.09073,1.11327,-0.04468
112.5,5.33381,1.10411,-0.0459998
115,5.57559,1.09783,-0.04371
117.5,5.81891,1.08727,-0.0471557
120,6.05845,1.08606,-0.04632
122.5,6.30082,1.07839,-0.0459901
125,6.54221,1.07587,-0.0486304
127.5,6.7826,1.08237,-0.0456673
130,7.02137,1.07456,-0.04665
132.5,7.26342,1.06957,-0.0466413
135,7.50278,1.07285,-0.0466165
137.5,7.74237,1.08399,-0.0470077
140,7.98138,1.0876,-0.048312
142.5,8.22168,1.09062,-0.0467464
145,8.46085,1.09451,-0.04775
147.5,8.69899,1.10266,-0.0471775
150,8.93881,1.10647,-0.0490892
152.5,9.17634,1.10821,-0.0499506
155,9.41506,1.11765,-0.0500839
157.5,9.65496,1.12503,-0.0474131
160,9.89269,1.12531,-0.0477454
162.5,10.1316,1.13526,-0.0487399
165,10.3689,1.13838,-0.0503892
167.5,10.6088,1.14236,-0.04808
170,10.846,1.15016,-0.0493902
172.5,11.0853,1.15265,-0.04939
175,11.324,1.15584,-0.0493998
177.5,11.5612,1.15752,-0.0494
180,11.8,1.15965,-0.0503935
182.5,12.0389,1.16308,-0.0481638
185,12.2766,1.1689,-0.05061
187.5,12.5152,1.16908,-0.0481062
190,12.7524,1.16837,-0.0492801
192.5,12.9902,1.1763,-0.04863
195,13.2287,1.17787,-0.0499509
197.5,13.4656,1.17992,-0.0512693
200,13.7036,1.17096,-0.0509405
202.5,13.9405,1.17957,-0.05094
205,14.1785,1.18392,-0.05225
207.5,14.4154,1.19321,-0.05126
210,14.6552,1.20171,-0.052326
212.5,14.8943,1.20758,-0.0532373
215,15.1302,1.21249,-0.0531631
217.5,15.3702,1.22199,-0.05357
220,15.6048,1.21697,-0.05357
222.5,15.8456,1.21369,-0.0548904
225,16.0827,1.22254,-0.05488
227.5,16.3201,1.22566,-0.0562029
230,16.5575,1.22599,-0.0558266
232.5,16.796,1.2281,-0.0568882
235,17.032,1.22797,-0.0551073
237.5,17.2694,1.23888,-0.0579588
240,17.5089,1.23202,-0.0589563
242.5,17.7475,1.24505,-0.05895
245,17.9845,1.25105,-0.06038
247.5,18.2243,1.25723,-0.0593878
250,18.4617,1.26226,-0.0645061
252.5,18.7014,1.26757,-0.06236
255,18.9397,1.26929,-0.0636596
257.5,19.1781,1.26271,-0.0670115
260,19.4165,1.25202,-0.0663187
262.5,19.654,1.26371,-0.06894
265,19.8937,1.30073,-0.07025
267.5,20.1332,1.33685,-0.07289
270,20.3725,1.37657,-0.0755247
272.5,20.6119,1.41051,-0.0781479
275,20.8512,1.42325,-0.0819829
277.5,21.0908,1.42709,-0.0838393
280,21.3306,1.40706,-0.0892671
282.5,21.5696,1.40369,-0.0932978
285,21.8066,1.39385,-0.0976
287.5,22.0493,1.3939,-0.103257
290,22.2895,1.39019,-0.10771
292.5,22.5284,1.39499,-0.114355
295,22.7663,1.39576,-0.120861
297.5,23.0069,1.39817,-0.128261
300,23.2468,1.387,-0.134504
302.5,23.4844,1.39042,-0.141556
305,23.7261,1.379,-0.148049
307.5,23.965,1.37829,-0.154951
310,24.2057,1.37222,-0.163272
312.5,24.445,1.35643,-0.167325
315,24.6874,1.34325,-0.177842
317.5,24.9259,1.33799,-0.18451
320,25.1653,1.3591,-0.19132
322.5,25.4093,1.40127,-0.196933
325,25.6526,1.55369,-0.206779
327.5,25.8975,1.86866,-0.213459
330,26.1388,1.82755,-0.222309
332.5,26.3777,1.56826,-0.229315
335,26.6165,1.41165,-0.239211
337.5,26.8567,1.33726,-0.245588
340,27.0977,1.31949,-0.254816
342.5,27.3404,1.30606,-0.264201
345,27.5824,1.30568,-0.272328
347.5,27.8238,1.29458,-0.283968
350,28.0656,1.2892,-0.293996
352.5,28.3084,1.28095,-0.298248
355,28.5504,1.26966,-0.31121
357.5,28.7932,1.25384,-0.319633
360,29.0348,1.23659,-0.327534
362.5,29.2788,1.2143,-0.337168
365,29.5173,1.19677,-0.34538
367.5,29.764,1.17628,-0.353966
370,30.0069,1.15941,-0.364032
372.5,30.2493,1.14221,-0.370694
375,30.4922,1.13479,-0.379625
377.5,30.7355,1.11517,-0.389607
380,30.9795,1.1132,-0.399105
382.5,31.2238,1.11037,-0.408369
385,31.4676,1.11386,-0.418917
387.5,31.7134,1.11285,-0.430032
390,31.957,1.11324,-0.442587
392.5,32.2013,1.11456,-0.452755
395,32.4466,1.11707,-0.467026
397.5,32.6915,1.13228,-0.477664
400,32.9377,1.15631,-0.489999
402.5,33.1811,1.18226,-0.500773
405,33.4297,1.21356,-0.511621
407.5,33.6761,1.24121,-0.521918
410,33.9223,1.26689,-0.532134
412.5,34.1688,1.29468,-0.543264
415,34.4149,1.32749,-0.552674
417.5,34.6581,1.34964,-0.563971
420,34.9062,1.37253,-0.57292
422.5,35.1502,1.36366,-0.585973
425,35.397,1.36474,-0.595364
427.5,35.6425,1.35678,-0.607349
430,35.8883,1.35782,-0.617873
432.5,36.1357,1.35446,-0.629946
435,36.3815,1.34441,-0.640757
437.5,36.6286,1.34384,-0.651651
440,36.8764,1.33575,-0.666041
442.5,37.123,1.3244,-0.677936
445,37.371,1.32283,-0.69156
447.5,37.6164,1.31218,-0.704901
450,37.8666,1.30083,-0.71886
452.5,38.1129,1.29148,-0.730027
455,38.3611,1.27424,-0.742462
457.5,38.6084,1.25323,-0.756802
460,38.8567,1.24664,-0.769039
462.5,39.1034,1.2275,-0.779868
465,39.3519,1.21074,-0.789439
467.5,39.5976,1.18527,-0.799189
470,39.847,1.15965,-0.808712
472.5,40.0954,1.13208,-0.816571
475,40.343,1.10926,-0.823698
477.5,40.5916,1.07853,-0.831469
480,40.8376,1.05433,-0.83976
482.5,41.0862,1.04614,-0.84631
485,41.3372,1.01823,-0.855493
487.5,41.5847,1.00244,-0.86157
490,41.8325,1.00227,-0.868699
492.5,42.0822,0.984918,-0.878788
495,42.3313,0.98068,-0.884248
497.5,42.5799,0.979718,-0.894258
500,42.829,0.978143,-0.901301
502.5,43.0783,0.976044,-0.90915
505,43.3274,0.968929,-0.919103
507.5,43.5775,0.974108,-0.929089
510,43.8263,0.98049,-0.936768
512.5,44.0763,0.988719,-0.952148
515,44.3233,1.00191,-0.960902
517.5,44.5754,1.01015,-0.973555
520,44.8264,1.01072,-0.986356
522.5,45.0748,1.01594,-1.00236
525,45.3259,1.02371,-1.01708
527.5,45.5735,1.01333,-1.03266
530,45.8257,1.00109,-1.05124
532.5,46.0764,1.01317,-1.07181
535,46.3265,1.0696,-1.09223
537.5,46.5777,1.18025,-1.11544
540,46.8282,1.30423,-1.13838
542.5,47.0797,1.41425,-1.16459
545,47.331,1.4964,-1.19437
547.5,47.5818,1.56601,-1.22439
550,47.834,1.62486,-1.25792
552.5,48.0842,1.66886,-1.29158
555,48.3363,1.70874,-1.32746
557.5,48.5845,1.71513,-1.36733
560,48.8367,1.71757,-1.40877
562.5,49.0858,1.69428,-1.45128
565,49.3381,1.62418,-1.49687
567.5,49.5882,1.51019,-1.53839
570,49.8378,1.34055,-1.58247
572.5,50.0871,1.1201,-1.62225
575,50.3334,0.798933,-1.65845
577.5,50.5809,0.464436,-1.68885
580,50.8299,0.198048,-1.70865
582.5,51.0818,0.115285,-1.72315
585,51.334,0.200942,-1.73426
587.5,51.5881,0.311031,-1.74084
590,51.8401,0.390773,-1.74479
592.5,52.0934,0.439582,-1.74873
595,52.3483,0.483942,-1.75167
597.5,52.6013,0.514679,-1.75684
600,52.8549,0.53039,-1.7604
602.5,53.1068,0.565859,-1.76355
605,53.3629,0.5898,-1.76832
607.5,53.6166,0.61177,-1.77112
610,53.8696,0.634708,-1.7764
612.5,54.1226,0.659545,-1.77903
615,54.3754,0.685746,-1.78298
617.5,54.6285,0.717624,-1.78579
620,54.8817,0.73748,-1.7877
622.5,55.136,0.772189,-1.7922
625,55.3893,0.794276,-1.79528
627.5,55.6431,0.81493,-1.80043
630,55.8969,0.835393,-1.7989
632.5,56.1509,0.851381,-1.80582
635,56.404,0.870266,-1.80977
637.5,56.6575,0.896336,-1.81109
640,56.9108,0.921346,-1.81325
642.5,57.1649,0.942773,-1.81784
645,57.4169,0.962514,-1.82217
647.5,57.6711,0.983906,-1.82495
650,57.9251,0.99552,-1.82747
652.5,58.1802,1.01322,-1.83273
655,58.4337,1.02224,-1.83636
657.5,58.6899,1.05104,-1.83941
660,58.9439,1.0614,-1.84204
662.5,59.1964,1.0818,-1.846
665,59.4521,1.09668,-1.84967
667.5,59.7069,1.10927,-1.85259
670,59.9611,1.12124,-1.85642
672.5,60.2159,1.14529,-1.86054
675,60.4697,1.15375,-1.86449
677.5,60.7247,1.16809,-1.86708
680,60.9792,1.18968,-1.86929
682.5,61.2344,1.20326,-1.87376
685,61.4877,1.20422,-1.87664
687.5,61.7433,1.21966,-1.88058
690,61.9977,1.23326,-1.88421
692.5,62.2523,1.23944,-1.88685
695,62.5068,1.25055,-1.89138
697.5,62.7612,1.25375,-1.89401
700,63.0162,1.24922,-1.89639
702.5,63.2689,1.25614,-1.90319
705,63.5249,1.24583,-1.90715
707.5,63.7799,1.24905,-1.91009
710,64.0343,1.25607,-1.91474
712.5,64.2888,1.26085,-1.91613
715,64.5418,1.25701,-1.92145
717.5,64.7986,1.26597,-1.9267
720,65.0534,1.25511,-1.93082
722.5,65.308,1.25567,-1.93231
725,65.5639,1.25895,-1.93658
727.5,65.8184,1.26726,-1.94084
730,66.0743,1.2607,-1.94338
732.5,66.3293,1.24191,-1.94733
735,66.5851,1.23383,-1.95138
737.5,66.838,1.21018,-1.95479
740,67.0934,1.19111,-1.95796
742.5,67.3488,1.1788,-1.95947
745,67.6038,1.15866,-1.96457
747.5,67.8592,1.14542,-1.96722
750,68.1144,1.13005,-1.97127
752.5,68.3702,1.10477,-1.97655
755,68.6229,1.0943,-1.9792
757.5,68.8804,1.08347,-1.9821
760,69.1356,1.07753,-1.98444
762.5,69.3899,1.0645,-1.98872
765,69.6447,1.05123,-1.98955
767.5,69.9,1.04112,-1.99399
770,70.1532,1.04195,-1.99658
772.5,70.4103,1.0271,-2.00064
775,70.6663,1.02086,-2.00189
777.5,70.9193,1.00768,-2.00453
780,71.1765,1.00326,-2.00585
782.5,71.4323,0.993659,-2.01026
785,71.687,0.991567,-2.01155
787.5,71.9434,0.993523,-2.01452
790,72.1993,0.991925,-2.01687

File: Two_Layer_Turnout_Gear_Moisture_Barrier_STA_N2_10KData_240530_R2.csv
Temp./C,Time/min,DSC/(mW/mg),Mass loss/mg
60.0,0.0,0.853347,-0.0182473
62.5,0.283519,0.926999,-0.0175949
65,0.553699,0.981506,-0.0168269
67.5,0.822459,1.0438,-0.0183664
70,1.0882,1.08815,-0.0203086
72.5,1.35158,1.12417,-0.0224853
75,1.61186,1.16567,-0.0237201
77.5,1.86949,1.20859,-0.0244854
80,2.12749,1.23196,-0.0247001
82.5,2.38256,1.25499,-0.0261513
85,2.63557,1.25545,-0.0272287
87.5,2.88838,1.25488,-0.0294316
90,3.13389,1.24122,-0.0304166
92.5,3.38485,1.23857,-0.0304212
95,3.63088,1.22391,-0.0320192
97.5,3.87561,1.2085,-0.0339135
100,4.12021,1.18979,-0.0326098
102.5,4.36395,1.17614,-0.0339199
105,4.60849,1.148,-0.0357912
107.5,4.85179,1.1382,-0.0357549
110,5.09373,1.11561,-0.0371081
112.5,5.33562,1.11231,-0.0360831
115,5.57816,1.10686,-0.0371101
117.5,5.82035,1.10094,-0.03711
120,6.06397,1.09422,-0.0397506
122.5,6.30404,1.10436,-0.0393894
125,6.54611,1.10664,-0.0381
127.5,6.78793,1.10232,-0.0394262
130,7.0301,1.1049,-0.0399039
132.5,7.27061,1.10565,-0.0400365
135,7.51137,1.10964,-0.0372202
137.5,7.75146,1.12193,-0.0388703
140,7.9908,1.11841,-0.03886
142.5,8.22851,1.12525,-0.0402744
145,8.47036,1.13221,-0.0401631
147.5,8.70912,1.13709,-0.0414939
150,8.94754,1.14616,-0.0408405
152.5,9.18584,1.15948,-0.0392011
155,9.42409,1.16265,-0.039201
157.5,9.66174,1.17748,-0.0392
160,9.8995,1.17928,-0.0393821
162.5,10.1385,1.19153,-0.0418105
165,10.3752,1.20037,-0.0417249
167.5,10.6116,1.20858,-0.0430405
170,10.8494,1.20579,-0.0387376
172.5,11.0881,1.21536,-0.0404099
175,11.3253,1.21977,-0.04172
177.5,11.5632,1.22586,-0.0407302
180,11.8011,1.23291,-0.0420503
182.5,12.0376,1.24229,-0.0430923
185,12.2754,1.2408,-0.0430331
187.5,12.5141,1.23859,-0.0430401
190,12.7513,1.24019,-0.04304
192.5,12.9886,1.24493,-0.0417636
195,13.2253,1.24393,-0.0466465
197.5,13.4638,1.25468,-0.0443601
200,13.7011,1.26704,-0.04337
202.5,13.9379,1.26191,-0.0426832
205,14.1755,1.27671,-0.0433699
207.5,14.4144,1.27181,-0.0456537
210,14.6506,1.27741,-0.0443764
212.5,14.8885,1.27471,-0.04304
215,15.1246,1.28248,-0.04699
217.5,15.3625,1.28715,-0.0469901
220,15.6019,1.28785,-0.0456712
222.5,15.8393,1.29306,-0.0446802
225,16.0753,1.29728,-0.0460001
227.5,16.3137,1.30428,-0.04995
230,16.552,1.31631,-0.0495966
232.5,16.7887,1.32336,-0.048331
235,17.0269,1.32984,-0.049739
237.5,17.2642,1.33804,-0.05105
240,17.5021,1.33672,-0.0484162
242.5,17.7404,1.34396,-0.0551174
245,17.978,1.36018,-0.0541278
247.5,18.216,1.37355,-0.0515116
250,18.4517,1.38604,-0.0528192
252.5,18.6916,1.38557,-0.0573107
255,18.9302,1.40315,-0.0577337
257.5,19.1667,1.39325,-0.0589605
260,19.4062,1.40155,-0.0602801
262.5,19.6422,1.41112,-0.0628839
265,19.8827,1.44757,-0.0650121
267.5,20.1221,1.49395,-0.06752
270,20.3604,1.52904,-0.0688395
272.5,20.5993,1.56396,-0.0727136
275,20.8394,1.58408,-0.0767353
277.5,21.0782,1.57747,-0.0795689
280,21.3165,1.58144,-0.0837515
282.5,21.5558,1.57297,-0.0876143
285,21.7954,1.58033,-0.0916208
287.5,22.0338,1.58085,-0.0968158
290,22.2736,1.5829,-0.101767
292.5,22.513,1.59273,-0.1087
295,22.7514,1.60299,-0.11462
297.5,22.9903,1.61244,-0.120124
300,23.2295,1.61845,-0.127778
302.5,23.4695,1.6136,-0.133398
305,23.709,1.61381,-0.142881
307.5,23.9481,1.60585,-0.151346
310,24.1888,1.60549,-0.156339
312.5,24.4288,1.60523,-0.16476
315,24.6671,1.59642,-0.17185
317.5,24.9045,1.59907,-0.178517
320,25.1469,1.609,-0.185604
322.5,25.3882,1.65338,-0.196453
325,25.6294,1.81392,-0.202034
327.5,25.8729,2.13356,-0.209015
330,26.1139,2.07438,-0.214609
332.5,26.3512,1.8053,-0.228231
335,26.5902,1.65369,-0.236599
337.5,26.83,1.58596,-0.245129
340,27.0685,1.55524,-0.254761
342.5,27.3102,1.54016,-0.261719
345,27.5511,1.52986,-0.273749
347.5,27.7911,1.52121,-0.280721
350,28.0332,1.51043,-0.290891
352.5,28.2738,1.49207,-0.297954
355,28.5154,1.47391,-0.306009
357.5,28.7557,1.46856,-0.315807
360,28.9976,1.45343,-0.323463
362.5,29.24,1.43992,-0.331988
365,29.4814,1.42061,-0.339672
367.5,29.724,1.4073,-0.353367
370,29.9652,1.38041,-0.361976
372.5,30.206,1.37247,-0.367579
375,30.4493,1.36252,-0.376984
377.5,30.693,1.35587,-0.387672
380,30.9353,1.35061,-0.398953
382.5,31.1783,1.35581,-0.408713
385,31.4224,1.35616,-0.420355
387.5,31.6657,1.3601,-0.431053
390,31.9084,1.3638,-0.443695
392.5,32.1516,1.38031,-0.453527
395,32.3955,1.39381,-0.465119
397.5,32.6384,1.4149,-0.478726
400,32.8804,1.43188,-0.490708
402.5,33.1277,1.44837,-0.501052
405,33.3726,1.47651,-0.51341
407.5,33.6167,1.51299,-0.52184
410,33.8623,1.54643,-0.535188
412.5,34.107,1.58055,-0.544533
415,34.3518,1.61146,-0.5543
417.5,34.5957,1.65142,-0.564434
420,34.8406,1.66013,-0.576178
422.5,35.0864,1.66422,-0.588945
425,35.3308,1.66616,-0.598063
427.5,35.5754,1.65672,-0.610782
430,35.8213,1.65104,-0.62566
432.5,36.0664,1.64733,-0.634994
435,36.3118,1.64269,-0.644757
437.5,36.559,1.639,-0.660087
440,36.805,1.63846,-0.670789
442.5,37.05,1.63108,-0.683332
445,37.2958,1.63124,-0.694815
447.5,37.5417,1.62424,-0.708652
450,37.7874,1.62773,-0.72182
452.5,38.0347,1.62403,-0.735711
455,38.2794,1.62106,-0.747569
457.5,38.5255,1.60754,-0.763453
460,38.7723,1.60835,-0.769816
462.5,39.019,1.59752,-0.778466
465,39.2645,1.59234,-0.790145
467.5,39.5113,1.57268,-0.798454
470,39.7574,1.5529,-0.806134
472.5,40.0044,1.53022,-0.815063
475,40.2511,1.52611,-0.820637
477.5,40.4982,1.5106,-0.830862
480,40.7443,1.5035,-0.840338
482.5,40.9926,1.50551,-0.8417
485,41.2391,1.51547,-0.852529
487.5,41.4873,1.51274,-0.856871
490,41.7354,1.51569,-0.865233
492.5,41.9829,1.51708,-0.873935
495,42.2312,1.52093,-0.88277
497.5,42.4806,1.52945,-0.889628
500,42.7294,1.53569,-0.89946
502.5,42.9782,1.54059,-0.909447
505,43.2268,1.54425,-0.917633
507.5,43.4757,1.55967,-0.927955
510,43.7238,1.56728,-0.936247
512.5,43.9732,1.5861,-0.948543
515,44.2212,1.60263,-0.959156
517.5,44.4697,1.62464,-0.972391
520,44.7195,1.64894,-0.985594
522.5,44.9679,1.66509,-1.0001
525,45.2161,1.6882,-1.01232
527.5,45.4659,1.68976,-1.03282
530,45.7155,1.68437,-1.04978
532.5,45.9635,1.67607,-1.06869
535,46.2132,1.68904,-1.09367
537.5,46.4628,1.73377,-1.11809
540,46.7141,1.85138,-1.13932
542.5,46.964,1.96919,-1.16565
545,47.2137,2.07798,-1.19457
547.5,47.4642,2.15654,-1.22559
550,47.7155,2.22762,-1.25644
552.5,47.964,2.29992,-1.29231
555,48.2146,2.3366,-1.32808
557.5,48.4642,2.35334,-1.36601
560,48.7144,2.35822,-1.40657
562.5,48.964,2.3231,-1.44744
565,49.2138,2.26847,-1.4903
567.5,49.4625,2.16818,-1.53398
570,49.7115,2.00218,-1.57837
572.5,49.959,1.77882,-1.61929
575,50.2056,1.45677,-1.6555
577.5,50.4523,1.06417,-1.68749
580,50.6998,0.725664,-1.70675
582.5,50.9477,0.575291,-1.72109
585,51.1982,0.629174,-1.73357
587.5,51.4509,0.703569,-1.74301
590,51.7039,0.760387,-1.74437
592.5,51.9555,0.81864,-1.747
595,52.2061,0.850655,-1.75357
597.5,52.458,0.875092,-1.7573
600,52.7103,0.891752,-1.76125
602.5,52.9615,0.901599,-1.76664
605,53.2122,0.912485,-1.76931
607.5,53.4678,0.933719,-1.77377
610,53.7178,0.958461,-1.77336
612.5,53.971,0.971902,-1.77805
615,54.2231,0.996572,-1.78199
617.5,54.4753,1.01603,-1.78464
620,54.7276,1.02457,-1.78857
622.5,54.9799,1.04993,-1.79189
625,55.2324,1.06982,-1.7956
627.5,55.4851,1.08735,-1.8006
630,55.738,1.11806,-1.80561
632.5,55.9911,1.13465,-1.80561
635,56.2446,1.15611,-1.80925
637.5,56.4966,1.17396,-1.81222
640,56.7485,1.19599,-1.81715
642.5,57.0025,1.22346,-1.82075
645,57.2556,1.22639,-1.82262
647.5,57.5088,1.24112,-1.82526
650,57.763,1.25264,-1.83047
652.5,58.0162,1.26598,-1.83479
655,58.2665,1.29301,-1.83766
657.5,58.522,1.30904,-1.83839
660,58.7747,1.31287,-1.84551
662.5,59.0248,1.33445,-1.84853
665,59.2813,1.34373,-1.85268
667.5,59.5338,1.35516,-1.85271
670,59.7869,1.36875,-1.85811
672.5,60.0403,1.36993,-1.86083
675,60.2934,1.37502,-1.86477
677.5,60.5463,1.37532,-1.86867
680,60.8,1.38158,-1.87401
682.5,61.0542,1.39468,-1.87946
685,61.3081,1.40339,-1.87883
687.5,61.5621,1.41679,-1.88361
690,61.8156,1.41545,-1.8886
692.5,62.0697,1.42436,-1.89223
695,62.3238,1.42814,-1.89421
697.5,62.5769,1.43536,-1.89693
700,62.8311,1.43242,-1.9021
702.5,63.0852,1.42997,-1.90613
705,63.3391,1.44011,-1.91013
707.5,63.5937,1.44534,-1.91464
710,63.8476,1.44021,-1.91738
712.5,64.1022,1.43624,-1.92076
715,64.3572,1.42963,-1.92604
717.5,64.6101,1.42686,-1.93001
720,64.8639,1.4118,-1.93395
722.5,65.1155,1.41808,-1.93922
725,65.3725,1.39885,-1.94195
727.5,65.6262,1.38194,-1.94633
730,65.8812,1.3643,-1.94997
732.5,66.1343,1.34506,-1.95393
735,66.3884,1.33807,-1.95789
737.5,66.6431,1.31716,-1.96113
740,66.8974,1.29833,-1.9708
742.5,67.152,1.28432,-1.97204
745,67.4058,1.26902,-1.96875
747.5,67.6603,1.24934,-1.97635
750,67.9153,1.24589,-1.98191
752.5,68.17,1.23682,-1.98368
755,68.425,1.21202,-1.98617
757.5,68.68,1.20074,-1.99031
760,68.9351,1.18499,-1.99266
762.5,69.1897,1.17068,-1.99793
765,69.446,1.14869,-2.00296
767.5,69.7001,1.14517,-2.0041
770,69.9555,1.14401,-2.00485
772.5,70.2101,1.12796,-2.00878
775,70.4639,1.11983,-2.01174
777.5,70.7182,1.12229,-2.01795
780,70.9737,1.12109,-2.01962
782.5,71.2287,1.10261,-2.021
785,71.4841,1.08734,-2.021
787.5,71.7398,1.09248,-2.02496
790,71.9945,1.09252,-2.02528