Folder: fsri_materials_database/01_Data/PEVA/FTIR/ATR (part 2)

File: PEVA_ATR_240705_R8.0.dpt
4498.36,0.00137
4484.86,0.00144
4471.36,0.00131
4457.86,0.00142
4444.36,0.00134
4430.86,0.00155
4417.36,0.00143
4403.86,0.00163
4390.36,0.00143
4376.86,0.00164
4363.36,0.00156
4349.86,0.00162
4336.36,0.00159
4322.86,0.00162
4309.36,0.00151
4295.86,0.00160
4282.36,0.00152
4268.86,0.00129
4255.36,0.00161
4241.86,0.00152
4228.36,0.00171
4214.86,0.00150
4201.36,0.00169
4187.86,0.00146
4174.36,0.00154
4160.86,0.00150
4147.36,0.00137
4133.86,0.00159
4120.36,0.00155
4106.86,0.00146
4093.36,0.00143
4079.86,0.00153
4066.36,0.00160
4052.86,0.00139
4039.36,0.00157
4025.86,0.00154
4012.36,0.00149
3998.86,0.00142
3985.36,0.00142
3971.86,0.00141
3958.36,0.00157
3944.86,0.00145
3931.36,0.00132
3917.86,0.00155
3904.36,0.00149
3890.86,0.00138
3877.36,0.00153
3863.86,0.00138
3850.36,0.00143
3836.86,0.00130
3823.36,0.00149
3809.86,0.00157
3796.36,0.00143
3782.86,0.00145
3769.36,0.00144
3755.86,0.00140
3742.36,0.00123
3728.86,0.00130
3715.36,0.00156
3701.86,0.00154
3688.36,0.00111
3674.86,0.00134
3661.36,0.00147
3647.86,0.00149
3634.36,0.00153
3620.86,0.00158
3607.36,0.00160
3593.86,0.00158
3580.36,0.00172
3566.86,0.00167
3553.36,0.00159
3539.87,0.00173
3526.37,0.00175
3512.87,0.00179
3499.37,0.00177
3485.87,0.00187
3472.37,0.00202
3458.87,0.00214
3445.37,0.00200
3431.87,0.00200
3418.37,0.00208
3404.87,0.00198
3391.37,0.00200
3377.87,0.00205
3364.37,0.00199
3350.87,0.00182
3337.37,0.00196
3323.87,0.00202
3310.37,0.00233
3296.87,0.00248
3283.37,0.00205
3269.87,0.00182
3256.37,0.00178
3242.87,0.00180
3229.37,0.00170
3215.87,0.00168
3202.37,0.00166
3188.87,0.00160
3175.37,0.00178
3161.87,0.00168
3148.37,0.00171
3134.87,0.00166
3121.37,0.00175
3107.87,0.00177
3094.37,0.00165
3080.87,0.00187
3067.37,0.00176
3053.87,0.00176
3040.37,0.00182
3026.87,0.00182
3013.37,0.00192
2999.87,0.00238
2986.37,0.00354
2972.87,0.00714
2959.37,0.01124
2945.87,0.00854
2932.37,0.01164
2918.87,0.01261
2905.37,0.00902
2891.87,0.00608
2878.37,0.00638
2864.87,0.00708
2851.37,0.00686
2837.87,0.00318
2824.37,0.00248
2810.87,0.00219
2797.37,0.00183
2783.87,0.00181
2770.37,0.00181
2756.87,0.00169
2743.37,0.00182
2729.87,0.00181
2716.37,0.00170
2702.87,0.00173
2689.37,0.00163
2675.87,0.00166
2662.37,0.00172
2648.87,0.00160
2635.37,0.00159
2621.87,0.00171
2608.37,0.00174
2594.87,0.00153
2581.37,0.00179
2567.87,0.00166
2554.37,0.00175
2540.87,0.00148
2527.37,0.00154
2513.87,0.00160
2500.37,0.00157
2486.87,0.00160
2473.37,0.00155
2459.87,0.00163
2446.37,0.00167
2432.87,0.00161
2419.37,0.00152
2405.87,0.00172
2392.37,0.00159
2378.87,0.00136
2365.37,0.00102
2351.87,0.00130
2338.37,0.00124
2324.87,0.00175
2311.37,0.00169
2297.87,0.00168
2284.37,0.00221
2270.88,0.00221
2257.38,0.00243
2243.88,0.00205
2230.38,0.00245
2216.88,0.00272
2203.38,0.00279
2189.88,0.00271
2176.38,0.00253
2162.88,0.00331
2149.38,0.00277
2135.88,0.00143
2122.38,0.00140
2108.88,0.00205
2095.38,0.00177
2081.88,0.00238
2068.38,0.00238
2054.88,0.00233
2041.38,0.00275
2027.88,0.00318
2014.38,0.00244
2000.88,0.00267
1987.38,0.00231
1973.88,0.00205
1960.38,0.00244
1946.88,0.00185
1933.38,0.00160
1919.88,0.00185
1906.38,0.00145
1892.88,0.00142
1879.38,0.00162
1865.88,0.00145
1852.38,0.00144
1838.88,0.00155
1825.38,0.00150
1811.88,0.00152
1798.38,0.00166
1784.88,0.00180
1771.38,0.00184
1757.88,0.00232
1744.38,0.00328
1730.88,0.01197
1717.38,0.02705
1703.88,0.01146
1690.38,0.00375
1676.88,0.00333
1663.38,0.00249
1649.88,0.00257
1636.38,0.00316
1622.88,0.00235
1609.38,0.00237
1595.88,0.00229
1582.38,0.00271
1568.88,0.00267
1555.38,0.00262
1541.88,0.00225
1528.38,0.00231
1514.88,0.00220
1501.38,0.00293
1487.88,0.00240
1474.38,0.00473
1460.88,0.00972
1447.38,0.00617
1433.88,0.00965
1420.38,0.00741
1406.88,0.00852
1393.38,0.00547
1379.88,0.00896
1366.38,0.00556
1352.88,0.00630
1339.38,0.00798
1325.88,0.00919
1312.38,0.00875
1298.88,0.00942
1285.38,0.01745
1271.88,0.03376
1258.38,0.02994
1244.88,0.03058
1231.38,0.01714
1217.88,0.00841
1204.38,0.00813
1190.88,0.00691
1177.38,0.00582
1163.88,0.00601
1150.38,0.00606
1136.88,0.00688
1123.38,0.01972
1109.88,0.02162
1096.38,0.02045
1082.88,0.01252
1069.38,0.00791
1055.88,0.00660
1042.38,0.00606
1028.88,0.00658
1015.38,0.01125
1001.88,0.00762
988.385,0.00884
974.885,0.01197
961.385,0.01494
947.885,0.01303
934.386,0.00998
920.886,0.00908
907.386,0.00749
893.886,0.00680
880.386,0.00723
866.886,0.00746
853.386,0.00660
839.886,0.00659
826.386,0.00594
812.886,0.00479
799.387,0.00452
785.887,0.00514
772.387,0.00606
758.887,0.00480
745.387,0.00621
731.887,0.03074
718.387,0.00854
704.887,0.01085
691.387,0.01232
677.888,0.01143
664.388,0.00819
650.888,0.01280
637.388,0.01927
623.888,0.01980
610.388,0.02128
599.781,0.01645

File: PEVA_ATR_240705_R12.0.dpt
4498.36,0.00216
4484.86,0.00202
4471.36,0.00205
4457.86,0.00206
4444.36,0.00198
4430.86,0.00216
4417.36,0.00236
4403.86,0.00261
4390.36,0.00257
4376.86,0.00267
4363.36,0.00272
4349.86,0.00301
4336.36,0.00329
4322.86,0.00325
4309.36,0.00286
4295.86,0.00278
4282.36,0.00259
4268.86,0.00301
4255.36,0.00305
4241.86,0.00296
4228.36,0.00311
4214.86,0.00319
4201.36,0.00298
4187.86,0.00289
4174.36,0.00271
4160.86,0.00279
4147.36,0.00284
4133.86,0.00274
4120.36,0.00273
4106.86,0.00295
4093.36,0.00279
4079.86,0.00302
4066.36,0.00270
4052.86,0.00285
4039.36,0.00257
4025.86,0.00266
4012.36,0.00269
3998.86,0.00252
3985.36,0.00258
3971.86,0.00240
3958.36,0.00249
3944.86,0.00228
3931.36,0.00256
3917.86,0.00275
3904.36,0.00252
3890.86,0.00261
3877.36,0.00269
3863.86,0.00286
3850.36,0.00271
3836.86,0.00271
3823.36,0.00286
3809.86,0.00256
3796.36,0.00279
3782.86,0.00254
3769.36,0.00240
3755.86,0.00280
3742.36,0.00312
3728.86,0.00261
3715.36,0.00252
3701.86,0.00249
3688.36,0.00258
3674.86,0.00262
3661.36,0.00256
3647.86,0.00289
3634.36,0.00261
3620.86,0.00279
3607.36,0.00297
3593.86,0.00288
3580.36,0.00310
3566.86,0.00346
3553.36,0.00329
3539.87,0.00343
3526.37,0.00333
3512.87,0.00368
3499.37,0.00349
3485.87,0.00367
3472.37,0.00368
3458.87,0.00400
3445.37,0.00411
3431.87,0.00435
3418.37,0.00458
3404.87,0.00413
3391.37,0.00386
3377.87,0.00353
3364.37,0.00351
3350.87,0.00363
3337.37,0.00375
3323.87,0.00374
3310.37,0.00386
3296.87,0.00395
3283.37,0.00390
3269.87,0.00347
3256.37,0.00310
3242.87,0.00313
3229.37,0.00301
3215.87,0.00315
3202.37,0.00312
3188.87,0.00311
3175.37,0.00288
3161.87,0.00294
3148.37,0.00300
3134.87,0.00291
3121.37,0.00310
3107.87,0.00331
3094.37,0.00340
3080.87,0.00367
3067.37,0.00395
3053.87,0.00425
3040.37,0.00385
3026.87,0.00434
3013.37,0.00515
2999.87,0.00732
2986.37,0.01396
2972.87,0.03419
2959.37,0.05832
2945.87,0.04242
2932.37,0.06174
2918.87,0.05870
2905.37,0.04400
2891.87,0.02736
2878.37,0.03006
2864.87,0.03373
2851.37,0.02843
2837.87,0.01201
2824.37,0.00845
2810.87,0.00709
2797.37,0.00537
2783.87,0.00465
2770.37,0.00442
2756.87,0.00432
2743.37,0.00456
2729.87,0.00458
2716.37,0.00399
2702.87,0.00384
2689.37,0.00377
2675.87,0.00390
2662.37,0.00383
2648.87,0.00372
2635.37,0.00371
2621.87,0.00366
2608.37,0.00329
2594.87,0.00347
2581.37,0.00322
2567.87,0.00344
2554.37,0.00339
2540.87,0.00342
2527.37,0.00337
2513.87,0.00319
2500.37,0.00322
2486.87,0.00307
2473.37,0.00286
2459.87,0.00289
2446.37,0.00276
2432.87,0.00277
2419.37,0.00280
2405.87,0.00289
2392.37,0.00300
2378.87,0.00331
2365.37,0.00387
2351.87,0.00375
2338.37,0.00359
2324.87,0.00425
2311.37,0.00315
2297.87,0.00290
2284.37,0.00316
2270.88,0.00275
2257.38,0.00264
2243.88,0.00283
2230.38,0.00307
2216.88,0.00272
2203.38,0.00273
2189.88,0.00211
2176.38,0.00165
2162.88,0.00217
2149.38,0.00091
2135.88,0.00115
2122.38,0.00175
2108.88,0.00226
2095.38,0.00148
2081.88,0.00177
2068.38,0.00198
2054.88,0.00221
2041.38,0.00207
2027.88,0.00157
2014.38,0.00072
2000.88,0.00136
1987.38,0.00217
1973.88,0.00045
1960.38,0.00181
1946.88,0.00212
1933.38,0.00208
1919.88,0.00229
1906.38,0.00202
1892.88,0.00202
1879.38,0.00203
1865.88,0.00232
1852.38,0.00246
1838.88,0.00279
1825.38,0.00351
1811.88,0.00378
1798.38,0.00391
1784.88,0.00447
1771.38,0.00537
1757.88,0.00763
1744.38,0.01483
1730.88,0.06201
1717.38,0.16045
1703.88,0.06078
1690.38,0.01580
1676.88,0.01238
1663.38,0.00851
1649.88,0.00747
1636.38,0.00825
1622.88,0.00665
1609.38,0.00711
1595.88,0.00607
1582.38,0.00817
1568.88,0.00809
1555.38,0.00758
1541.88,0.00696
1528.38,0.00716
1514.88,0.00706
1501.38,0.01039
1487.88,0.00852
1474.38,0.01953
1460.88,0.04725
1447.38,0.02735
1433.88,0.04747
1420.38,0.03489
1406.88,0.03992
1393.38,0.02406
1379.88,0.04218
1366.38,0.02422
1352.88,0.02809
1339.38,0.03845
1325.88,0.04437
1312.38,0.04186
1298.88,0.04569
1285.38,0.09167
1271.88,0.19992
1258.38,0.17281
1244.88,0.17489
1231.38,0.08943
1217.88,0.03907
1204.38,0.03712
1190.88,0.03131
1177.38,0.02517
1163.88,0.02601
1150.38,0.02706
1136.88,0.03028
1123.38,0.10373
1109.88,0.11490
1096.38,0.10673
1082.88,0.05984
1069.38,0.03493
1055.88,0.02812
1042.38,0.02542
1028.88,0.02848
1015.38,0.05405
1001.88,0.03328
988.385,0.04037
974.885,0.05732
961.385,0.07382
947.885,0.06211
934.386,0.04566
920.886,0.04074
907.386,0.03285
893.886,0.02672
880.386,0.03218
866.886,0.03121
853.386,0.02690
839.886,0.02695
826.386,0.02461
812.886,0.01651
799.387,0.01584
785.887,0.01907
772.387,0.02283
758.887,0.01602
745.387,0.01788
731.887,0.16887
718.387,0.03624
704.887,0.04934
691.387,0.05854
677.888,0.05462
664.388,0.03677
650.888,0.05916
637.388,0.10046
623.888,0.09301
610.388,0.10962
599.781,0.07728