Folder: fsri_materials_database/01_Data/PEVA/FTIR/ATR

File: PEVA_ATR_240705_R1.0.dpt
4498.36,0.00139
4484.86,0.00118
4471.36,0.00132
4457.86,0.00140
4444.36,0.00146
4430.86,0.00142
4417.36,0.00143
4403.86,0.00143
4390.36,0.00155
4376.86,0.00160
4363.36,0.00159
4349.86,0.00153
4336.36,0.00188
4322.86,0.00163
4309.36,0.00150
4295.86,0.00168
4282.36,0.00161
4268.86,0.00182
4255.36,0.00168
4241.86,0.00173
4228.36,0.00158
4214.86,0.00174
4201.36,0.00178
4187.86,0.00168
4174.36,0.00168
4160.86,0.00173
4147.36,0.00189
4133.86,0.00173
4120.36,0.00154
4106.86,0.00173
4093.36,0.00138
4079.86,0.00178
4066.36,0.00167
4052.86,0.00152
4039.36,0.00151
4025.86,0.00158
4012.36,0.00164
3998.86,0.00165
3985.36,0.00149
3971.86,0.00153
3958.36,0.00160
3944.86,0.00166
3931.36,0.00143
3917.86,0.00152
3904.36,0.00176
3890.86,0.00173
3877.36,0.00162
3863.86,0.00140
3850.36,0.00133
3836.86,0.00137
3823.36,0.00153
3809.86,0.00146
3796.36,0.00138
3782.86,0.00147
3769.36,0.00153
3755.86,0.00136
3742.36,0.00142
3728.86,0.00130
3715.36,0.00138
3701.86,0.00148
3688.36,0.00160
3674.86,0.00161
3661.36,0.00144
3647.86,0.00133
3634.36,0.00146
3620.86,0.00159
3607.36,0.00126
3593.86,0.00160
3580.36,0.00165
3566.86,0.00180
3553.36,0.00185
3539.87,0.00187
3526.37,0.00192
3512.87,0.00206
3499.37,0.00184
3485.87,0.00196
3472.37,0.00200
3458.87,0.00212
3445.37,0.00220
3431.87,0.00233
3418.37,0.00241
3404.87,0.00234
3391.37,0.00222
3377.87,0.00185
3364.37,0.00209
3350.87,0.00193
3337.37,0.00188
3323.87,0.00194
3310.37,0.00212
3296.87,0.00208
3283.37,0.00202
3269.87,0.00201
3256.37,0.00196
3242.87,0.00180
3229.37,0.00176
3215.87,0.00188
3202.37,0.00178
3188.87,0.00184
3175.37,0.00184
3161.87,0.00190
3148.37,0.00176
3134.87,0.00196
3121.37,0.00179
3107.87,0.00181
3094.37,0.00208
3080.87,0.00213
3067.37,0.00223
3053.87,0.00232
3040.37,0.00218
3026.87,0.00232
3013.37,0.00267
2999.87,0.00360
2986.37,0.00619
2972.87,0.01427
2959.37,0.02364
2945.87,0.01739
2932.37,0.02460
2918.87,0.02296
2905.37,0.01767
2891.87,0.01138
2878.37,0.01259
2864.87,0.01396
2851.37,0.01160
2837.87,0.00549
2824.37,0.00401
2810.87,0.00331
2797.37,0.00263
2783.87,0.00246
2770.37,0.00227
2756.87,0.00233
2743.37,0.00241
2729.87,0.00232
2716.37,0.00226
2702.87,0.00208
2689.37,0.00219
2675.87,0.00213
2662.37,0.00212
2648.87,0.00222
2635.37,0.00202
2621.87,0.00213
2608.37,0.00199
2594.87,0.00196
2581.37,0.00190
2567.87,0.00185
2554.37,0.00192
2540.87,0.00186
2527.37,0.00200
2513.87,0.00186
2500.37,0.00172
2486.87,0.00171
2473.37,0.00163
2459.87,0.00170
2446.37,0.00159
2432.87,0.00155
2419.37,0.00153
2405.87,0.00155
2392.37,0.00156
2378.87,0.00158
2365.37,0.00112
2351.87,0.00146
2338.37,0.00116
2324.87,0.00194
2311.37,0.00167
2297.87,0.00147
2284.37,0.00172
2270.88,0.00177
2257.38,0.00171
2243.88,0.00179
2230.38,0.00124
2216.88,0.00089
2203.38,0.00120
2189.88,0.00131
2176.38,0.00058
2162.88,0.00103
2149.38,0.00016
2135.88,0.00001
2122.38,0.00083
2108.88,0.00139
2095.38,0.00130
2081.88,0.00125
2068.38,0.00115
2054.88,0.00104
2041.38,0.00109
2027.88,0.00129
2014.38,0.00150
2000.88,0.00079
1987.38,0.00157
1973.88,0.00141
1960.38,0.00109
1946.88,0.00106
1933.38,0.00172
1919.88,0.00146
1906.38,0.00134
1892.88,0.00129
1879.38,0.00126
1865.88,0.00129
1852.38,0.00138
1838.88,0.00147
1825.38,0.00187
1811.88,0.00183
1798.38,0.00198
1784.88,0.00232
1771.38,0.00270
1757.88,0.00351
1744.38,0.00652
1730.88,0.02557
1717.38,0.06056
1703.88,0.02479
1690.38,0.00695
1676.88,0.00566
1663.38,0.00436
1649.88,0.00382
1636.38,0.00414
1622.88,0.00354
1609.38,0.00381
1595.88,0.00330
1582.38,0.00408
1568.88,0.00398
1555.38,0.00378
1541.88,0.00334
1528.38,0.00368
1514.88,0.00376
1501.38,0.00498
1487.88,0.00418
1474.38,0.00853
1460.88,0.01993
1447.38,0.01199
1433.88,0.01994
1420.38,0.01487
1406.88,0.01724
1393.38,0.01080
1379.88,0.01809
1366.38,0.01066
1352.88,0.01225
1339.38,0.01638
1325.88,0.01883
1312.38,0.01784
1298.88,0.01953
1285.38,0.03713
1271.88,0.07459
1258.38,0.06580
1244.88,0.06668
1231.38,0.03634
1217.88,0.01656
1204.38,0.01607
1190.88,0.01357
1177.38,0.01109
1163.88,0.01163
1150.38,0.01193
1136.88,0.01324
1123.38,0.04232
1109.88,0.04619
1096.38,0.04317
1082.88,0.02537
1069.38,0.01536
1055.88,0.01258
1042.38,0.01143
1028.88,0.01262
1015.38,0.02312
1001.88,0.01449
988.385,0.01760
974.885,0.02438
961.385,0.03051
947.885,0.02621
934.386,0.01940
920.886,0.01749
907.386,0.01431
893.886,0.01180
880.386,0.01430
866.886,0.01416
853.386,0.01206
839.886,0.01216
826.386,0.01088
812.886,0.00796
799.387,0.00758
785.887,0.00883
772.387,0.00997
758.887,0.00797
745.387,0.00947
731.887,0.06456
718.387,0.01589
704.887,0.02126
691.387,0.02429
677.888,0.02357
664.388,0.01548
650.888,0.02485
637.388,0.04083
623.888,0.03754
610.388,0.04393
599.781,0.03292

File: PEVA_ATR_240705_R2.0.dpt
4498.36,0.00118
4484.86,0.00108
4471.36,0.00123
4457.86,0.00105
4444.36,0.00092
4430.86,0.00132
4417.36,0.00106
4403.86,0.00111
4390.36,0.00115
4376.86,0.00114
4363.36,0.00122
4349.86,0.00134
4336.36,0.00152
4322.86,0.00139
4309.36,0.00115
4295.86,0.00148
4282.36,0.00131
4268.86,0.00133
4255.36,0.00128
4241.86,0.00113
4228.36,0.00140
4214.86,0.00138
4201.36,0.00135
4187.86,0.00117
4174.36,0.00132
4160.86,0.00116
4147.36,0.00118
4133.86,0.00123
4120.36,0.00120
4106.86,0.00117
4093.36,0.00119
4079.86,0.00144
4066.36,0.00138
4052.86,0.00111
4039.36,0.00124
4025.86,0.00110
4012.36,0.00124
3998.86,0.00120
3985.36,0.00110
3971.86,0.00118
3958.36,0.00119
3944.86,0.00124
3931.36,0.00105
3917.86,0.00141
3904.36,0.00111
3890.86,0.00104
3877.36,0.00112
3863.86,0.00117
3850.36,0.00115
3836.86,0.00116
3823.36,0.00118
3809.86,0.00111
3796.36,0.00112
3782.86,0.00112
3769.36,0.00114
3755.86,0.00104
3742.36,0.00098
3728.86,0.00084
3715.36,0.00092
3701.86,0.00104
3688.36,0.00104
3674.86,0.00096
3661.36,0.00110
3647.86,0.00078
3634.36,0.00107
3620.86,0.00100
3607.36,0.00102
3593.86,0.00088
3580.36,0.00103
3566.86,0.00126
3553.36,0.00107
3539.87,0.00099
3526.37,0.00097
3512.87,0.00125
3499.37,0.00096
3485.87,0.00117
3472.37,0.00133
3458.87,0.00117
3445.37,0.00125
3431.87,0.00122
3418.37,0.00108
3404.87,0.00109
3391.37,0.00120
3377.87,0.00116
3364.37,0.00119
3350.87,0.00109
3337.37,0.00102
3323.87,0.00109
3310.37,0.00107
3296.87,0.00116
3283.37,0.00107
3269.87,0.00101
3256.37,0.00107
3242.87,0.00092
3229.37,0.00101
3215.87,0.00117
3202.37,0.00103
3188.87,0.00101
3175.37,0.00119
3161.87,0.00111
3148.37,0.00110
3134.87,0.00129
3121.37,0.00133
3107.87,0.00128
3094.37,0.00128
3080.87,0.00141
3067.37,0.00146
3053.87,0.00154
3040.37,0.00140
3026.87,0.00158
3013.37,0.00172
2999.87,0.00228
2986.37,0.00372
2972.87,0.00828
2959.37,0.01349
2945.87,0.00986
2932.37,0.01353
2918.87,0.01236
2905.37,0.01000
2891.87,0.00650
2878.37,0.00745
2864.87,0.00803
2851.37,0.00612
2837.87,0.00317
2824.37,0.00245
2810.87,0.00217
2797.37,0.00177
2783.87,0.00171
2770.37,0.00167
2756.87,0.00161
2743.37,0.00172
2729.87,0.00176
2716.37,0.00164
2702.87,0.00160
2689.37,0.00156
2675.87,0.00152
2662.37,0.00157
2648.87,0.00148
2635.37,0.00151
2621.87,0.00142
2608.37,0.00141
2594.87,0.00150
2581.37,0.00155
2567.87,0.00114
2554.37,0.00140
2540.87,0.00122
2527.37,0.00122
2513.87,0.00115
2500.37,0.00125
2486.87,0.00109
2473.37,0.00107
2459.87,0.00109
2446.37,0.00099
2432.87,0.00110
2419.37,0.00102
2405.87,0.00093
2392.37,0.00110
2378.87,0.00106
2365.37,0.00103
2351.87,0.00102
2338.37,0.00096
2324.87,0.00149
2311.37,0.00105
2297.87,0.00109
2284.37,0.00117
2270.88,0.00050
2257.38,0.00079
2243.88,0.00038
2230.38,0.00031
2216.88,-0.00003
2203.38,-0.00031
2189.88,0.00009
2176.38,-0.00042
2162.88,-0.00043
2149.38,-0.00119
2135.88,-0.00087
2122.38,0.00014
2108.88,0.00029
2095.38,0.00020
2081.88,0.00053
2068.38,0.00025
2054.88,-0.00010
2041.38,-0.00034
2027.88,-0.00083
2014.38,-0.00065
2000.88,-0.00025
1987.38,-0.00024
1973.88,-0.00094
1960.38,-0.00052
1946.88,0.00046
1933.38,0.00008
1919.88,0.00029
1906.38,0.00032
1892.88,0.00053
1879.38,0.00052
1865.88,0.00060
1852.38,0.00083
1838.88,0.00108
1825.38,0.00119
1811.88,0.00128
1798.38,0.00140
1784.88,0.00143
1771.38,0.00169
1757.88,0.00208
1744.38,0.00367
1730.88,0.01491
1717.38,0.03495
1703.88,0.01439
1690.38,0.00418
1676.88,0.00348
1663.38,0.00251
1649.88,0.00219
1636.38,0.00251
1622.88,0.00214
1609.38,0.00234
1595.88,0.00207
1582.38,0.00255
1568.88,0.00258
1555.38,0.00231
1541.88,0.00235
1528.38,0.00229
1514.88,0.00248
1501.38,0.00310
1487.88,0.00280
1474.38,0.00534
1460.88,0.01180
1447.38,0.00711
1433.88,0.01183
1420.38,0.00910
1406.88,0.01026
1393.38,0.00650
1379.88,0.01082
1366.38,0.00658
1352.88,0.00741
1339.38,0.00972
1325.88,0.01123
1312.38,0.01064
1298.88,0.01153
1285.38,0.02180
1271.88,0.04336
1258.38,0.03846
1244.88,0.03911
1231.38,0.02128
1217.88,0.00980
1204.38,0.00952
1190.88,0.00822
1177.38,0.00662
1163.88,0.00675
1150.38,0.00712
1136.88,0.00794
1123.38,0.02460
1109.88,0.02731
1096.38,0.02551
1082.88,0.01477
1069.38,0.00890
1055.88,0.00740
1042.38,0.00651
1028.88,0.00749
1015.38,0.01356
1001.88,0.00849
988.385,0.01058
974.885,0.01463
961.385,0.01820
947.885,0.01568
934.386,0.01179
920.886,0.01037
907.386,0.00849
893.886,0.00695
880.386,0.00829
866.886,0.00813
853.386,0.00708
839.886,0.00726
826.386,0.00663
812.886,0.00457
799.387,0.00463
785.887,0.00534
772.387,0.00605
758.887,0.00458
745.387,0.00507
731.887,0.03788
718.387,0.00987
704.887,0.01228
691.387,0.01485
677.888,0.01424
664.388,0.00917
650.888,0.01441
637.388,0.02377
623.888,0.02362
610.388,0.02583
599.781,0.01949

File: PEVA_ATR_240705_R4.0.dpt
4498.36,0.00141
4484.86,0.00123
4471.36,0.00142
4457.86,0.00159
4444.36,0.00141
4430.86,0.00159
4417.36,0.00125
4403.86,0.00161
4390.36,0.00160
4376.86,0.00157
4363.36,0.00143
4349.86,0.00164
4336.36,0.00198
4322.86,0.00161
4309.36,0.00170
4295.86,0.00175
4282.36,0.00146
4268.86,0.00157
4255.36,0.00157
4241.86,0.00164
4228.36,0.00173
4214.86,0.00188
4201.36,0.00175
4187.86,0.00177
4174.36,0.00156
4160.86,0.00159
4147.36,0.00170
4133.86,0.00180
4120.36,0.00161
4106.86,0.00162
4093.36,0.00180
4079.86,0.00172
4066.36,0.00172
4052.86,0.00152
4039.36,0.00137
4025.86,0.00146
4012.36,0.00173
3998.86,0.00152
3985.36,0.00159
3971.86,0.00158
3958.36,0.00140
3944.86,0.00145
3931.36,0.00156
3917.86,0.00158
3904.36,0.00140
3890.86,0.00151
3877.36,0.00140
3863.86,0.00153
3850.36,0.00135
3836.86,0.00144
3823.36,0.00141
3809.86,0.00155
3796.36,0.00128
3782.86,0.00142
3769.36,0.00137
3755.86,0.00147
3742.36,0.00153
3728.86,0.00157
3715.36,0.00140
3701.86,0.00129
3688.36,0.00150
3674.86,0.00148
3661.36,0.00140
3647.86,0.00136
3634.36,0.00161
3620.86,0.00133
3607.36,0.00159
3593.86,0.00150
3580.36,0.00171
3566.86,0.00152
3553.36,0.00155
3539.87,0.00175
3526.37,0.00171
3512.87,0.00168
3499.37,0.00183
3485.87,0.00179
3472.37,0.00172
3458.87,0.00183
3445.37,0.00175
3431.87,0.00210
3418.37,0.00221
3404.87,0.00199
3391.37,0.00211
3377.87,0.00173
3364.37,0.00208
3350.87,0.00169
3337.37,0.00176
3323.87,0.00210
3310.37,0.00245
3296.87,0.00261
3283.37,0.00227
3269.87,0.00213
3256.37,0.00182
3242.87,0.00184
3229.37,0.00165
3215.87,0.00162
3202.37,0.00166
3188.87,0.00165
3175.37,0.00179
3161.87,0.00173
3148.37,0.00161
3134.87,0.00156
3121.37,0.00163
3107.87,0.00186
3094.37,0.00188
3080.87,0.00204
3067.37,0.00200
3053.87,0.00203
3040.37,0.00195
3026.87,0.00216
3013.37,0.00237
2999.87,0.00302
2986.37,0.00517
2972.87,0.01112
2959.37,0.01844
2945.87,0.01373
2932.37,0.01953
2918.87,0.02104
2905.37,0.01473
2891.87,0.00951
2878.37,0.01008
2864.87,0.01137
2851.37,0.01128
2837.87,0.00469
2824.37,0.00340
2810.87,0.00291
2797.37,0.00246
2783.87,0.00216
2770.37,0.00209
2756.87,0.00212
2743.37,0.00225
2729.87,0.00217
2716.37,0.00206
2702.87,0.00193
2689.37,0.00187
2675.87,0.00194
2662.37,0.00206
2648.87,0.00208
2635.37,0.00200
2621.87,0.00199
2608.37,0.00206
2594.87,0.00202
2581.37,0.00197
2567.87,0.00197
2554.37,0.00196
2540.87,0.00189
2527.37,0.00186
2513.87,0.00193
2500.37,0.00185
2486.87,0.00186
2473.37,0.00173
2459.87,0.00161
2446.37,0.00177
2432.87,0.00182
2419.37,0.00180
2405.87,0.00183
2392.37,0.00159
2378.87,0.00165
2365.37,0.00132
2351.87,0.00163
2338.37,0.00151
2324.87,0.00195
2311.37,0.00187
2297.87,0.00180
2284.37,0.00235
2270.88,0.00220
2257.38,0.00243
2243.88,0.00231
2230.38,0.00216
2216.88,0.00233
2203.38,0.00248
2189.88,0.00249
2176.38,0.00283
2162.88,0.00355
2149.38,0.00223
2135.88,0.00143
2122.38,0.00159
2108.88,0.00207
2095.38,0.00205
2081.88,0.00209
2068.38,0.00222
2054.88,0.00209
2041.38,0.00268
2027.88,0.00259
2014.38,0.00183
2000.88,0.00214
1987.38,0.00233
1973.88,0.00165
1960.38,0.00202
1946.88,0.00216
1933.38,0.00218
1919.88,0.00164
1906.38,0.00185
1892.88,0.00164
1879.38,0.00118
1865.88,0.00153
1852.38,0.00167
1838.88,0.00164
1825.38,0.00193
1811.88,0.00192
1798.38,0.00177
1784.88,0.00211
1771.38,0.00225
1757.88,0.00298
1744.38,0.00505
1730.88,0.01939
1717.38,0.04562
1703.88,0.01892
1690.38,0.00540
1676.88,0.00440
1663.38,0.00338
1649.88,0.00324
1636.38,0.00387
1622.88,0.00299
1609.38,0.00316
1595.88,0.00283
1582.38,0.00366
1568.88,0.00372
1555.38,0.00330
1541.88,0.00322
1528.38,0.00315
1514.88,0.00295
1501.38,0.00412
1487.88,0.00335
1474.38,0.00696
1460.88,0.01553
1447.38,0.00942
1433.88,0.01563
1420.38,0.01159
1406.88,0.01339
1393.38,0.00844
1379.88,0.01412
1366.38,0.00846
1352.88,0.00977
1339.38,0.01287
1325.88,0.01473
1312.38,0.01395
1298.88,0.01516
1285.38,0.02843
1271.88,0.05633
1258.38,0.04981
1244.88,0.05048
1231.38,0.02799
1217.88,0.01295
1204.38,0.01256
1190.88,0.01057
1177.38,0.00873
1163.88,0.00902
1150.38,0.00942
1136.88,0.01044
1123.38,0.03200
1109.88,0.03503
1096.38,0.03339
1082.88,0.01955
1069.38,0.01177
1055.88,0.00969
1042.38,0.00907
1028.88,0.00997
1015.38,0.01795
1001.88,0.01135
988.385,0.01368
974.885,0.01874
961.385,0.02400
947.885,0.02043
934.386,0.01545
920.886,0.01385
907.386,0.01150
893.886,0.00963
880.386,0.01122
866.886,0.01120
853.386,0.00993
839.886,0.00989
826.386,0.00896
812.886,0.00645
799.387,0.00600
785.887,0.00725
772.387,0.00839
758.887,0.00700
745.387,0.00674
731.887,0.04969
718.387,0.01327
704.887,0.01636
691.387,0.01961
677.888,0.01902
664.388,0.01346
650.888,0.01955
637.388,0.03091
623.888,0.03035
610.388,0.03436
599.781,0.02538

File: PEVA_ATR_240705_R5.0.dpt
4498.36,0.00137
4484.86,0.00154
4471.36,0.00139
4457.86,0.00141
4444.36,0.00165
4430.86,0.00163
4417.36,0.00151
4403.86,0.00156
4390.36,0.00177
4376.86,0.00174
4363.36,0.00172
4349.86,0.00180
4336.36,0.00185
4322.86,0.00179
4309.36,0.00173
4295.86,0.00172
4282.36,0.00181
4268.86,0.00178
4255.36,0.00176
4241.86,0.00186
4228.36,0.00163
4214.86,0.00172
4201.36,0.00169
4187.86,0.00167
4174.36,0.00189
4160.86,0.00186
4147.36,0.00182
4133.86,0.00167
4120.36,0.00159
4106.86,0.00177
4093.36,0.00161
4079.86,0.00184
4066.36,0.00179
4052.86,0.00166
4039.36,0.00148
4025.86,0.00170
4012.36,0.00164
3998.86,0.00151
3985.36,0.00161
3971.86,0.00159
3958.36,0.00150
3944.86,0.00169
3931.36,0.00175
3917.86,0.00149
3904.36,0.00131
3890.86,0.00165
3877.36,0.00167
3863.86,0.00165
3850.36,0.00158
3836.86,0.00169
3823.36,0.00163
3809.86,0.00162
3796.36,0.00166
3782.86,0.00183
3769.36,0.00156
3755.86,0.00163
3742.36,0.00161
3728.86,0.00161
3715.36,0.00161
3701.86,0.00165
3688.36,0.00180
3674.86,0.00183
3661.36,0.00162
3647.86,0.00161
3634.36,0.00162
3620.86,0.00157
3607.36,0.00162
3593.86,0.00180
3580.36,0.00182
3566.86,0.00187
3553.36,0.00189
3539.87,0.00170
3526.37,0.00179
3512.87,0.00197
3499.37,0.00189
3485.87,0.00192
3472.37,0.00201
3458.87,0.00188
3445.37,0.00199
3431.87,0.00205
3418.37,0.00212
3404.87,0.00212
3391.37,0.00186
3377.87,0.00180
3364.37,0.00174
3350.87,0.00187
3337.37,0.00196
3323.87,0.00211
3310.37,0.00232
3296.87,0.00249
3283.37,0.00208
3269.87,0.00191
3256.37,0.00197
3242.87,0.00177
3229.37,0.00200
3215.87,0.00188
3202.37,0.00185
3188.87,0.00172
3175.37,0.00172
3161.87,0.00155
3148.37,0.00167
3134.87,0.00167
3121.37,0.00178
3107.87,0.00169
3094.37,0.00169
3080.87,0.00177
3067.37,0.00196
3053.87,0.00191
3040.37,0.00183
3026.87,0.00193
3013.37,0.00207
2999.87,0.00257
2986.37,0.00418
2972.87,0.00858
2959.37,0.01411
2945.87,0.01039
2932.37,0.01475
2918.87,0.01631
2905.37,0.01123
2891.87,0.00749
2878.37,0.00797
2864.87,0.00871
2851.37,0.00876
2837.87,0.00387
2824.37,0.00281
2810.87,0.00252
2797.37,0.00221
2783.87,0.00207
2770.37,0.00195
2756.87,0.00202
2743.37,0.00200
2729.87,0.00193
2716.37,0.00183
2702.87,0.00176
2689.37,0.00171
2675.87,0.00176
2662.37,0.00183
2648.87,0.00190
2635.37,0.00185
2621.87,0.00189
2608.37,0.00179
2594.87,0.00181
2581.37,0.00172
2567.87,0.00169
2554.37,0.00171
2540.87,0.00178
2527.37,0.00186
2513.87,0.00171
2500.37,0.00181
2486.87,0.00159
2473.37,0.00166
2459.87,0.00153
2446.37,0.00151
2432.87,0.00142
2419.37,0.00160
2405.87,0.00151
2392.37,0.00142
2378.87,0.00137
2365.37,0.00061
2351.87,0.00119
2338.37,0.00084
2324.87,0.00155
2311.37,0.00165
2297.87,0.00175
2284.37,0.00219
2270.88,0.00219
2257.38,0.00254
2243.88,0.00203
2230.38,0.00237
2216.88,0.00253
2203.38,0.00238
2189.88,0.00294
2176.38,0.00251
2162.88,0.00339
2149.38,0.00230
2135.88,0.00175
2122.38,0.00168
2108.88,0.00168
2095.38,0.00151
2081.88,0.00229
2068.38,0.00194
2054.88,0.00208
2041.38,0.00306
2027.88,0.00267
2014.38,0.00251
2000.88,0.00160
1987.38,0.00239
1973.88,0.00193
1960.38,0.00264
1946.88,0.00178
1933.38,0.00191
1919.88,0.00170
1906.38,0.00152
1892.88,0.00136
1879.38,0.00152
1865.88,0.00163
1852.38,0.00140
1838.88,0.00153
1825.38,0.00171
1811.88,0.00169
1798.38,0.00171
1784.88,0.00192
1771.38,0.00201
1757.88,0.00246
1744.38,0.00409
1730.88,0.01497
1717.38,0.03379
1703.88,0.01429
1690.38,0.00435
1676.88,0.00356
1663.38,0.00273
1649.88,0.00256
1636.38,0.00324
1622.88,0.00252
1609.38,0.00264
1595.88,0.00243
1582.38,0.00295
1568.88,0.00296
1555.38,0.00294
1541.88,0.00308
1528.38,0.00275
1514.88,0.00247
1501.38,0.00324
1487.88,0.00265
1474.38,0.00532
1460.88,0.01183
1447.38,0.00737
1433.88,0.01182
1420.38,0.00885
1406.88,0.01021
1393.38,0.00666
1379.88,0.01066
1366.38,0.00655
1352.88,0.00738
1339.38,0.00984
1325.88,0.01124
1312.38,0.01070
1298.88,0.01161
1285.38,0.02155
1271.88,0.04215
1258.38,0.03728
1244.88,0.03797
1231.38,0.02132
1217.88,0.00996
1204.38,0.00971
1190.88,0.00839
1177.38,0.00697
1163.88,0.00708
1150.38,0.00738
1136.88,0.00801
1123.38,0.02434
1109.88,0.02685
1096.38,0.02538
1082.88,0.01510
1069.38,0.00962
1055.88,0.00762
1042.38,0.00715
1028.88,0.00788
1015.38,0.01390
1001.88,0.00892
988.385,0.01069
974.885,0.01450
961.385,0.01841
947.885,0.01545
934.386,0.01210
920.886,0.01066
907.386,0.00918
893.886,0.00788
880.386,0.00896
866.886,0.00864
853.386,0.00762
839.886,0.00779
826.386,0.00728
812.886,0.00538
799.387,0.00500
785.887,0.00607
772.387,0.00679
758.887,0.00467
745.387,0.00466
731.887,0.03725
718.387,0.00993
704.887,0.01308
691.387,0.01499
677.888,0.01394
664.388,0.00935
650.888,0.01479
637.388,0.02321
623.888,0.02326
610.388,0.02584
599.781,0.01937

File: PEVA_ATR_240705_R7.0.dpt
4498.36,0.00135
4484.86,0.00152
4471.36,0.00144
4457.86,0.00162
4444.36,0.00158
4430.86,0.00155
4417.36,0.00134
4403.86,0.00177
4390.36,0.00194
4376.86,0.00171
4363.36,0.00152
4349.86,0.00159
4336.36,0.00170
4322.86,0.00170
4309.36,0.00156
4295.86,0.00164
4282.36,0.00163
4268.86,0.00172
4255.36,0.00172
4241.86,0.00140
4228.36,0.00159
4214.86,0.00151
4201.36,0.00160
4187.86,0.00162
4174.36,0.00164
4160.86,0.00164
4147.36,0.00167
4133.86,0.00160
4120.36,0.00153
4106.86,0.00164
4093.36,0.00168
4079.86,0.00175
4066.36,0.00155
4052.86,0.00166
4039.36,0.00153
4025.86,0.00166
4012.36,0.00155
3998.86,0.00147
3985.36,0.00159
3971.86,0.00161
3958.36,0.00150
3944.86,0.00159
3931.36,0.00147
3917.86,0.00150
3904.36,0.00141
3890.86,0.00136
3877.36,0.00164
3863.86,0.00144
3850.36,0.00141
3836.86,0.00156
3823.36,0.00150
3809.86,0.00158
3796.36,0.00147
3782.86,0.00162
3769.36,0.00139
3755.86,0.00151
3742.36,0.00158
3728.86,0.00152
3715.36,0.00158
3701.86,0.00155
3688.36,0.00145
3674.86,0.00135
3661.36,0.00167
3647.86,0.00156
3634.36,0.00191
3620.86,0.00169
3607.36,0.00183
3593.86,0.00184
3580.36,0.00204
3566.86,0.00208
3553.36,0.00224
3539.87,0.00232
3526.37,0.00217
3512.87,0.00231
3499.37,0.00245
3485.87,0.00249
3472.37,0.00261
3458.87,0.00256
3445.37,0.00244
3431.87,0.00295
3418.37,0.00275
3404.87,0.00285
3391.37,0.00274
3377.87,0.00270
3364.37,0.00258
3350.87,0.00261
3337.37,0.00252
3323.87,0.00275
3310.37,0.00273
3296.87,0.00288
3283.37,0.00262
3269.87,0.00263
3256.37,0.00240
3242.87,0.00231
3229.37,0.00211
3215.87,0.00225
3202.37,0.00226
3188.87,0.00202
3175.37,0.00198
3161.87,0.00211
3148.37,0.00205
3134.87,0.00189
3121.37,0.00186
3107.87,0.00192
3094.37,0.00181
3080.87,0.00209
3067.37,0.00187
3053.87,0.00200
3040.37,0.00178
3026.87,0.00195
3013.37,0.00202
2999.87,0.00237
2986.37,0.00350
2972.87,0.00678
2959.37,0.01087
2945.87,0.00820
2932.37,0.01081
2918.87,0.01136
2905.37,0.00832
2891.87,0.00568
2878.37,0.00615
2864.87,0.00670
2851.37,0.00616
2837.87,0.00318
2824.37,0.00250
2810.87,0.00225
2797.37,0.00196
2783.87,0.00180
2770.37,0.00172
2756.87,0.00176
2743.37,0.00181
2729.87,0.00187
2716.37,0.00168
2702.87,0.00170
2689.37,0.00162
2675.87,0.00170
2662.37,0.00171
2648.87,0.00167
2635.37,0.00177
2621.87,0.00180
2608.37,0.00186
2594.87,0.00183
2581.37,0.00177
2567.87,0.00158
2554.37,0.00166
2540.87,0.00160
2527.37,0.00157
2513.87,0.00172
2500.37,0.00153
2486.87,0.00157
2473.37,0.00154
2459.87,0.00169
2446.37,0.00154
2432.87,0.00155
2419.37,0.00163
2405.87,0.00152
2392.37,0.00155
2378.87,0.00145
2365.37,0.00088
2351.87,0.00116
2338.37,0.00110
2324.87,0.00172
2311.37,0.00190
2297.87,0.00171
2284.37,0.00201
2270.88,0.00210
2257.38,0.00180
2243.88,0.00240
2230.38,0.00253
2216.88,0.00275
2203.38,0.00267
2189.88,0.00258
2176.38,0.00314
2162.88,0.00286
2149.38,0.00274
2135.88,0.00227
2122.38,0.00201
2108.88,0.00203
2095.38,0.00168
2081.88,0.00197
2068.38,0.00212
2054.88,0.00246
2041.38,0.00278
2027.88,0.00266
2014.38,0.00286
2000.88,0.00255
1987.38,0.00236
1973.88,0.00225
1960.38,0.00250
1946.88,0.00169
1933.38,0.00199
1919.88,0.00195
1906.38,0.00194
1892.88,0.00150
1879.38,0.00163
1865.88,0.00160
1852.38,0.00148
1838.88,0.00162
1825.38,0.00181
1811.88,0.00149
1798.38,0.00176
1784.88,0.00167
1771.38,0.00179
1757.88,0.00219
1744.38,0.00309
1730.88,0.01141
1717.38,0.02593
1703.88,0.01124
1690.38,0.00389
1676.88,0.00343
1663.38,0.00292
1649.88,0.00279
1636.38,0.00323
1622.88,0.00271
1609.38,0.00293
1595.88,0.00274
1582.38,0.00310
1568.88,0.00292
1555.38,0.00271
1541.88,0.00228
1528.38,0.00232
1514.88,0.00216
1501.38,0.00290
1487.88,0.00255
1474.38,0.00460
1460.88,0.00959
1447.38,0.00593
1433.88,0.00948
1420.38,0.00716
1406.88,0.00829
1393.38,0.00551
1379.88,0.00881
1366.38,0.00555
1352.88,0.00625
1339.38,0.00782
1325.88,0.00901
1312.38,0.00852
1298.88,0.00916
1285.38,0.01688
1271.88,0.03267
1258.38,0.02886
1244.88,0.02935
1231.38,0.01664
1217.88,0.00821
1204.38,0.00785
1190.88,0.00667
1177.38,0.00573
1163.88,0.00573
1150.38,0.00618
1136.88,0.00683
1123.38,0.01946
1109.88,0.02122
1096.38,0.01996
1082.88,0.01223
1069.38,0.00776
1055.88,0.00673
1042.38,0.00609
1028.88,0.00652
1015.38,0.01140
1001.88,0.00730
988.385,0.00873
974.885,0.01179
961.385,0.01462
947.885,0.01274
934.386,0.00980
920.886,0.00884
907.386,0.00749
893.886,0.00662
880.386,0.00785
866.886,0.00768
853.386,0.00661
839.886,0.00689
826.386,0.00609
812.886,0.00507
799.387,0.00500
785.887,0.00534
772.387,0.00606
758.887,0.00474
745.387,0.00504
731.887,0.02909
718.387,0.00879
704.887,0.01098
691.387,0.01288
677.888,0.01142
664.388,0.00772
650.888,0.01257
637.388,0.01868
623.888,0.01965
610.388,0.02016
599.781,0.01571