Folder: fsri_materials_database/01_Data/PEVA/FTIR/IS (part 11)

File: PEVA_0.18_IS_T_240809_R8.dpt
7497.33,0.03710
7474.19,0.03626
7451.04,0.03656
7427.9,0.04676
7404.75,0.03847
7381.6,0.02085
7358.46,0.03348
7335.31,0.03397
7312.17,0.04188
7289.02,0.04118
7265.87,0.03261
7242.73,0.03702
7219.58,0.04237
7196.44,0.04272
7173.29,0.02892
7150.15,0.03541
7127,0.02463
7103.85,0.03286
7080.71,0.03119
7057.56,0.03046
7034.42,0.03772
7011.27,0.03606
6988.12,0.03195
6964.98,0.03319
6941.83,0.03537
6918.69,0.04181
6895.54,0.03524
6872.39,0.03558
6849.25,0.03230
6826.1,0.03407
6802.96,0.03791
6779.81,0.03356
6756.67,0.03228
6733.52,0.03289
6710.37,0.03026
6687.23,0.02584
6664.08,0.03258
6640.94,0.02508
6617.79,0.03299
6594.64,0.02861
6571.5,0.03061
6548.35,0.02883
6525.21,0.03061
6502.06,0.02930
6478.92,0.03318
6455.77,0.03743
6432.62,0.02675
6409.48,0.03656
6386.33,0.03350
6363.19,0.03231
6340.04,0.03272
6316.89,0.03069
6293.75,0.03482
6270.6,0.02838
6247.46,0.03072
6224.31,0.03142
6201.16,0.03213
6178.02,0.03309
6154.87,0.03066
6131.73,0.03117
6108.58,0.02878
6085.44,0.03008
6062.29,0.03084
6039.14,0.03096
6016,0.02795
5992.85,0.03361
5969.71,0.02794
5946.56,0.03090
5923.41,0.02952
5900.27,0.03035
5877.12,0.02778
5853.98,0.03357
5830.83,0.02776
5807.68,0.03006
5784.54,0.03429
5761.39,0.02973
5738.25,0.02962
5715.1,0.03023
5691.96,0.02895
5668.81,0.03083
5645.66,0.03175
5622.52,0.03009
5599.37,0.02985
5576.23,0.03119
5553.08,0.03073
5529.93,0.03099
5506.79,0.02838
5483.64,0.02961
5460.5,0.03225
5437.35,0.02774
5414.21,0.03033
5391.06,0.02914
5367.91,0.03315
5344.77,0.03094
5321.62,0.02971
5298.48,0.03124
5275.33,0.03031
5252.18,0.03048
5229.04,0.02910
5205.89,0.02980
5182.75,0.02915
5159.6,0.02975
5136.45,0.03091
5113.31,0.03024
5090.16,0.03086
5067.02,0.02969
5043.87,0.03067
5020.73,0.03194
4997.58,0.03043
4974.43,0.03007
4951.29,0.03100
4928.14,0.03040
4905,0.02879
4881.85,0.03034
4858.7,0.03096
4835.56,0.03104
4812.41,0.03128
4789.27,0.03079
4766.12,0.03018
4742.97,0.03037
4719.83,0.02832
4696.68,0.02960
4673.54,0.02982
4650.39,0.03045
4627.25,0.02999
4604.1,0.03002
4580.95,0.03055
4557.81,0.03006
4534.66,0.02976
4511.52,0.03080
4488.37,0.02944
4465.22,0.02959
4442.08,0.03064
4418.93,0.03040
4395.79,0.03041
4372.64,0.03002
4349.49,0.02891
4326.35,0.02964
4303.2,0.03009
4280.06,0.02933
4256.91,0.02943
4233.77,0.02922
4210.62,0.02987
4187.47,0.02977
4164.33,0.02998
4141.18,0.02967
4118.04,0.02976
4094.89,0.02985
4071.74,0.02966
4048.6,0.03048
4025.45,0.03021
4002.31,0.02867
3979.16,0.02956
3956.02,0.02953
3932.87,0.03059
3909.72,0.02981
3886.58,0.03052
3863.43,0.02943
3840.29,0.03016
3817.14,0.02988
3793.99,0.02945
3770.85,0.03025
3747.7,0.03132
3724.56,0.02871
3701.41,0.02893
3678.26,0.03025
3655.12,0.02826
3631.97,0.02700
3608.83,0.02752
3585.68,0.02730
3562.54,0.02727
3539.39,0.02708
3516.24,0.02659
3493.1,0.02672
3469.95,0.02561
3446.81,0.02570
3423.66,0.02553
3400.51,0.02581
3377.37,0.02591
3354.22,0.02566
3331.08,0.02559
3307.93,0.02585
3284.78,0.02666
3261.64,0.02651
3238.49,0.02583
3215.35,0.02658
3192.2,0.02624
3169.06,0.02636
3145.91,0.02619
3122.76,0.02653
3099.62,0.02656
3076.47,0.02655
3053.33,0.02672
3030.18,0.02635
3007.03,0.02615
2983.89,0.02619
2960.74,0.02510
2937.6,0.02533
2914.45,0.02596
2891.31,0.02618
2868.16,0.02631
2845.01,0.02718
2821.87,0.02681
2798.72,0.02735
2775.58,0.02726
2752.43,0.02681
2729.28,0.02688
2706.14,0.02715
2682.99,0.02709
2659.85,0.02650
2636.7,0.02684
2613.55,0.02657
2590.41,0.02735
2567.26,0.02686
2544.12,0.02657
2520.97,0.02649
2497.83,0.02652
2474.68,0.02696
2451.53,0.02670
2428.39,0.02669
2405.24,0.02586
2382.1,0.02698
2358.95,0.02721
2335.8,0.02673
2312.66,0.02650
2289.51,0.02616
2266.37,0.02621
2243.22,0.02615
2220.07,0.02584
2196.93,0.02558
2173.78,0.02582
2150.64,0.02531
2127.49,0.02581
2104.35,0.02554
2081.2,0.02524
2058.05,0.02532
2034.91,0.02509
2011.76,0.02560
1988.62,0.02553
1965.47,0.02513
1942.32,0.02523
1919.18,0.02532
1896.03,0.02506
1872.89,0.02475
1849.74,0.02483
1826.6,0.02422
1803.45,0.02372
1780.3,0.02302
1757.16,0.02138
1734.01,0.02312
1710.87,0.02413
1687.72,0.02334
1664.57,0.02190
1641.43,0.02163
1618.28,0.02237
1595.14,0.02242
1571.99,0.02166
1548.84,0.02119
1525.7,0.02197
1502.55,0.02165
1479.41,0.02145
1456.26,0.02071
1433.12,0.02177
1409.97,0.02115
1386.82,0.02055
1363.68,0.02075
1340.53,0.02030
1317.39,0.01949
1294.24,0.02023
1271.09,0.02133
1247.95,0.02225
1224.8,0.02167
1201.66,0.02095
1178.51,0.02012
1155.36,0.02003
1132.22,0.02077
1109.07,0.02210
1085.93,0.02181
1062.78,0.02357
1039.64,0.02291
1016.49,0.02287
993.344,0.02345
970.198,0.02356
947.052,0.02258
923.906,0.02254
900.76,0.02222
877.614,0.02150
854.468,0.02119
831.323,0.02164
808.177,0.02067
785.031,0.02031
761.885,0.02008
738.739,0.02085
715.593,0.01968
692.447,0.02017
669.301,0.01823
646.156,0.01820
623.01,0.01845
599.864,0.02151

File: PEVA_0.18_IS_T_240809_R9.dpt
7497.33,0.03956
7474.19,0.02017
7451.04,0.02950
7427.9,0.03127
7404.75,0.02002
7381.6,0.03190
7358.46,0.03814
7335.31,0.03471
7312.17,0.03507
7289.02,0.01868
7265.87,0.03291
7242.73,0.02772
7219.58,0.03276
7196.44,0.03008
7173.29,0.04456
7150.15,0.03137
7127,0.03712
7103.85,0.03850
7080.71,0.02802
7057.56,0.03576
7034.42,0.03065
7011.27,0.04204
6988.12,0.03291
6964.98,0.03254
6941.83,0.02224
6918.69,0.03299
6895.54,0.03836
6872.39,0.03141
6849.25,0.03280
6826.1,0.02782
6802.96,0.02929
6779.81,0.02838
6756.67,0.02403
6733.52,0.03712
6710.37,0.03800
6687.23,0.03705
6664.08,0.02960
6640.94,0.03256
6617.79,0.02819
6594.64,0.02664
6571.5,0.03463
6548.35,0.03654
6525.21,0.02810
6502.06,0.02691
6478.92,0.03349
6455.77,0.03240
6432.62,0.03101
6409.48,0.02924
6386.33,0.03093
6363.19,0.03212
6340.04,0.03601
6316.89,0.03077
6293.75,0.02755
6270.6,0.03075
6247.46,0.03026
6224.31,0.02998
6201.16,0.02819
6178.02,0.02814
6154.87,0.02855
6131.73,0.03247
6108.58,0.03198
6085.44,0.02886
6062.29,0.03291
6039.14,0.02967
6016,0.03341
5992.85,0.03471
5969.71,0.02923
5946.56,0.03265
5923.41,0.03159
5900.27,0.03129
5877.12,0.03067
5853.98,0.03243
5830.83,0.03018
5807.68,0.03105
5784.54,0.03030
5761.39,0.03232
5738.25,0.02996
5715.1,0.02901
5691.96,0.02758
5668.81,0.02971
5645.66,0.02975
5622.52,0.02982
5599.37,0.03215
5576.23,0.03081
5553.08,0.03110
5529.93,0.03109
5506.79,0.03054
5483.64,0.03068
5460.5,0.02955
5437.35,0.03064
5414.21,0.02768
5391.06,0.03023
5367.91,0.03016
5344.77,0.03136
5321.62,0.03072
5298.48,0.02915
5275.33,0.02996
5252.18,0.03048
5229.04,0.03054
5205.89,0.03088
5182.75,0.03156
5159.6,0.03037
5136.45,0.02950
5113.31,0.03125
5090.16,0.02999
5067.02,0.03179
5043.87,0.02991
5020.73,0.03054
4997.58,0.03042
4974.43,0.02994
4951.29,0.03021
4928.14,0.03065
4905,0.03076
4881.85,0.03091
4858.7,0.03102
4835.56,0.02925
4812.41,0.03088
4789.27,0.03056
4766.12,0.03023
4742.97,0.03115
4719.83,0.03059
4696.68,0.03029
4673.54,0.03048
4650.39,0.03107
4627.25,0.03158
4604.1,0.03058
4580.95,0.03048
4557.81,0.03014
4534.66,0.03020
4511.52,0.03103
4488.37,0.03132
4465.22,0.03103
4442.08,0.03066
4418.93,0.02980
4395.79,0.03122
4372.64,0.03180
4349.49,0.03051
4326.35,0.03058
4303.2,0.03054
4280.06,0.03104
4256.91,0.03073
4233.77,0.03021
4210.62,0.03019
4187.47,0.03049
4164.33,0.03120
4141.18,0.03045
4118.04,0.03038
4094.89,0.03074
4071.74,0.03099
4048.6,0.03098
4025.45,0.03088
4002.31,0.03042
3979.16,0.03078
3956.02,0.03084
3932.87,0.03017
3909.72,0.03038
3886.58,0.03129
3863.43,0.03028
3840.29,0.03075
3817.14,0.03028
3793.99,0.03043
3770.85,0.03065
3747.7,0.03044
3724.56,0.03057
3701.41,0.02921
3678.26,0.02969
3655.12,0.02926
3631.97,0.02892
3608.83,0.02895
3585.68,0.02854
3562.54,0.02827
3539.39,0.02743
3516.24,0.02657
3493.1,0.02688
3469.95,0.02675
3446.81,0.02659
3423.66,0.02688
3400.51,0.02639
3377.37,0.02591
3354.22,0.02582
3331.08,0.02605
3307.93,0.02647
3284.78,0.02704
3261.64,0.02664
3238.49,0.02764
3215.35,0.02724
3192.2,0.02722
3169.06,0.02695
3145.91,0.02741
3122.76,0.02773
3099.62,0.02715
3076.47,0.02666
3053.33,0.02709
3030.18,0.02761
3007.03,0.02677
2983.89,0.02646
2960.74,0.02625
2937.6,0.02529
2914.45,0.02662
2891.31,0.02717
2868.16,0.02653
2845.01,0.02736
2821.87,0.02704
2798.72,0.02735
2775.58,0.02714
2752.43,0.02789
2729.28,0.02738
2706.14,0.02699
2682.99,0.02787
2659.85,0.02730
2636.7,0.02735
2613.55,0.02756
2590.41,0.02761
2567.26,0.02756
2544.12,0.02704
2520.97,0.02741
2497.83,0.02734
2474.68,0.02774
2451.53,0.02764
2428.39,0.02714
2405.24,0.02741
2382.1,0.02733
2358.95,0.02737
2335.8,0.02744
2312.66,0.02756
2289.51,0.02673
2266.37,0.02655
2243.22,0.02708
2220.07,0.02643
2196.93,0.02667
2173.78,0.02655
2150.64,0.02683
2127.49,0.02609
2104.35,0.02615
2081.2,0.02607
2058.05,0.02578
2034.91,0.02586
2011.76,0.02604
1988.62,0.02582
1965.47,0.02604
1942.32,0.02575
1919.18,0.02590
1896.03,0.02577
1872.89,0.02539
1849.74,0.02525
1826.6,0.02489
1803.45,0.02493
1780.3,0.02352
1757.16,0.02232
1734.01,0.02388
1710.87,0.02459
1687.72,0.02335
1664.57,0.02247
1641.43,0.02194
1618.28,0.02321
1595.14,0.02276
1571.99,0.02198
1548.84,0.02215
1525.7,0.02309
1502.55,0.02197
1479.41,0.02211
1456.26,0.02183
1433.12,0.02152
1409.97,0.02134
1386.82,0.02073
1363.68,0.02093
1340.53,0.02066
1317.39,0.01991
1294.24,0.02030
1271.09,0.02234
1247.95,0.02258
1224.8,0.02212
1201.66,0.02168
1178.51,0.02127
1155.36,0.02050
1132.22,0.02049
1109.07,0.02277
1085.93,0.02162
1062.78,0.02340
1039.64,0.02293
1016.49,0.02270
993.344,0.02417
970.198,0.02361
947.052,0.02282
923.906,0.02238
900.76,0.02191
877.614,0.02221
854.468,0.02215
831.323,0.02196
808.177,0.02134
785.031,0.02156
761.885,0.02080
738.739,0.02021
715.593,0.02009
692.447,0.01917
669.301,0.01888
646.156,0.01886
623.01,0.01874
599.864,0.01727

File: PEVA_0.18_IS_T_240809_R10.dpt
7497.33,0.02915
7474.19,0.03463
7451.04,0.04307
7427.9,0.02764
7404.75,0.03760
7381.6,0.02000
7358.46,0.03224
7335.31,0.03235
7312.17,0.03374
7289.02,0.02991
7265.87,0.03295
7242.73,0.04323
7219.58,0.03672
7196.44,0.02922
7173.29,0.03384
7150.15,0.02970
7127,0.03212
7103.85,0.03424
7080.71,0.04017
7057.56,0.03929
7034.42,0.03450
7011.27,0.02945
6988.12,0.03269
6964.98,0.03197
6941.83,0.03785
6918.69,0.03631
6895.54,0.03301
6872.39,0.03688
6849.25,0.02696
6826.1,0.03329
6802.96,0.02548
6779.81,0.03258
6756.67,0.03700
6733.52,0.03593
6710.37,0.03444
6687.23,0.03387
6664.08,0.03164
6640.94,0.02953
6617.79,0.03033
6594.64,0.03257
6571.5,0.02643
6548.35,0.02959
6525.21,0.02775
6502.06,0.03034
6478.92,0.02840
6455.77,0.03324
6432.62,0.03059
6409.48,0.03003
6386.33,0.03051
6363.19,0.03422
6340.04,0.03348
6316.89,0.03027
6293.75,0.02937
6270.6,0.02942
6247.46,0.02966
6224.31,0.03031
6201.16,0.02996
6178.02,0.03064
6154.87,0.03041
6131.73,0.02992
6108.58,0.03029
6085.44,0.02854
6062.29,0.03151
6039.14,0.03407
6016,0.03156
5992.85,0.03329
5969.71,0.03111
5946.56,0.02886
5923.41,0.03265
5900.27,0.02813
5877.12,0.03053
5853.98,0.02795
5830.83,0.03059
5807.68,0.03044
5784.54,0.03181
5761.39,0.03007
5738.25,0.03041
5715.1,0.02834
5691.96,0.02915
5668.81,0.02893
5645.66,0.03222
5622.52,0.02940
5599.37,0.03072
5576.23,0.03055
5553.08,0.03018
5529.93,0.02991
5506.79,0.03119
5483.64,0.03248
5460.5,0.03027
5437.35,0.03202
5414.21,0.03184
5391.06,0.03320
5367.91,0.03047
5344.77,0.03097
5321.62,0.03126
5298.48,0.03122
5275.33,0.03077
5252.18,0.03043
5229.04,0.03017
5205.89,0.02868
5182.75,0.03038
5159.6,0.02990
5136.45,0.03156
5113.31,0.03080
5090.16,0.03233
5067.02,0.03028
5043.87,0.03051
5020.73,0.03027
4997.58,0.03154
4974.43,0.03093
4951.29,0.03107
4928.14,0.02946
4905,0.03159
4881.85,0.03144
4858.7,0.03078
4835.56,0.03112
4812.41,0.02965
4789.27,0.03017
4766.12,0.03093
4742.97,0.03056
4719.83,0.03083
4696.68,0.03128
4673.54,0.03098
4650.39,0.03080
4627.25,0.03016
4604.1,0.02984
4580.95,0.03079
4557.81,0.03060
4534.66,0.03080
4511.52,0.03105
4488.37,0.03037
4465.22,0.03115
4442.08,0.03088
4418.93,0.03066
4395.79,0.03100
4372.64,0.03012
4349.49,0.02945
4326.35,0.02995
4303.2,0.03135
4280.06,0.03027
4256.91,0.03023
4233.77,0.03088
4210.62,0.03069
4187.47,0.03013
4164.33,0.03091
4141.18,0.03018
4118.04,0.03121
4094.89,0.03039
4071.74,0.03043
4048.6,0.03051
4025.45,0.03094
4002.31,0.03007
3979.16,0.03009
3956.02,0.03069
3932.87,0.03061
3909.72,0.03066
3886.58,0.03081
3863.43,0.03038
3840.29,0.03186
3817.14,0.03024
3793.99,0.03065
3770.85,0.03108
3747.7,0.03052
3724.56,0.03119
3701.41,0.02991
3678.26,0.03053
3655.12,0.02996
3631.97,0.02936
3608.83,0.02873
3585.68,0.02766
3562.54,0.02766
3539.39,0.02743
3516.24,0.02637
3493.1,0.02721
3469.95,0.02709
3446.81,0.02704
3423.66,0.02798
3400.51,0.02632
3377.37,0.02635
3354.22,0.02671
3331.08,0.02636
3307.93,0.02631
3284.78,0.02601
3261.64,0.02751
3238.49,0.02648
3215.35,0.02734
3192.2,0.02730
3169.06,0.02771
3145.91,0.02786
3122.76,0.02761
3099.62,0.02687
3076.47,0.02685
3053.33,0.02715
3030.18,0.02654
3007.03,0.02679
2983.89,0.02659
2960.74,0.02570
2937.6,0.02586
2914.45,0.02658
2891.31,0.02712
2868.16,0.02699
2845.01,0.02740
2821.87,0.02783
2798.72,0.02785
2775.58,0.02768
2752.43,0.02811
2729.28,0.02792
2706.14,0.02793
2682.99,0.02788
2659.85,0.02728
2636.7,0.02731
2613.55,0.02806
2590.41,0.02779
2567.26,0.02790
2544.12,0.02761
2520.97,0.02748
2497.83,0.02747
2474.68,0.02780
2451.53,0.02765
2428.39,0.02709
2405.24,0.02765
2382.1,0.02747
2358.95,0.02744
2335.8,0.02761
2312.66,0.02718
2289.51,0.02730
2266.37,0.02706
2243.22,0.02685
2220.07,0.02676
2196.93,0.02682
2173.78,0.02660
2150.64,0.02672
2127.49,0.02643
2104.35,0.02666
2081.2,0.02593
2058.05,0.02655
2034.91,0.02647
2011.76,0.02634
1988.62,0.02619
1965.47,0.02639
1942.32,0.02584
1919.18,0.02582
1896.03,0.02548
1872.89,0.02574
1849.74,0.02523
1826.6,0.02479
1803.45,0.02468
1780.3,0.02371
1757.16,0.02264
1734.01,0.02347
1710.87,0.02429
1687.72,0.02300
1664.57,0.02230
1641.43,0.02249
1618.28,0.02249
1595.14,0.02274
1571.99,0.02179
1548.84,0.02194
1525.7,0.02281
1502.55,0.02260
1479.41,0.02208
1456.26,0.02139
1433.12,0.02160
1409.97,0.02157
1386.82,0.02120
1363.68,0.02089
1340.53,0.02083
1317.39,0.02032
1294.24,0.02053
1271.09,0.02197
1247.95,0.02299
1224.8,0.02254
1201.66,0.02109
1178.51,0.02126
1155.36,0.02047
1132.22,0.02104
1109.07,0.02182
1085.93,0.02186
1062.78,0.02508
1039.64,0.02437
1016.49,0.02275
993.344,0.02452
970.198,0.02410
947.052,0.02325
923.906,0.02279
900.76,0.02228
877.614,0.02167
854.468,0.02236
831.323,0.02189
808.177,0.02139
785.031,0.02093
761.885,0.02029
738.739,0.01949
715.593,0.01945
692.447,0.01867
669.301,0.01800
646.156,0.01761
623.01,0.01809
599.864,0.02072

File: PEVA_0.18_IS_T_240809_R11.dpt
7497.33,0.05069
7474.19,0.02922
7451.04,0.03535
7427.9,0.02607
7404.75,0.02655
7381.6,0.03123
7358.46,0.03490
7335.31,0.04091
7312.17,0.03288
7289.02,0.03044
7265.87,0.03764
7242.73,0.03187
7219.58,0.03154
7196.44,0.03883
7173.29,0.02756
7150.15,0.04301
7127,0.03880
7103.85,0.03193
7080.71,0.03615
7057.56,0.02643
7034.42,0.03050
7011.27,0.03671
6988.12,0.03065
6964.98,0.03337
6941.83,0.03705
6918.69,0.02824
6895.54,0.03695
6872.39,0.03590
6849.25,0.03548
6826.1,0.02797
6802.96,0.02999
6779.81,0.02799
6756.67,0.02996
6733.52,0.03764
6710.37,0.02620
6687.23,0.03048
6664.08,0.03604
6640.94,0.03114
6617.79,0.03604
6594.64,0.02934
6571.5,0.02728
6548.35,0.03243
6525.21,0.03253
6502.06,0.03183
6478.92,0.02713
6455.77,0.03270
6432.62,0.03599
6409.48,0.03505
6386.33,0.03727
6363.19,0.03031
6340.04,0.03206
6316.89,0.02917
6293.75,0.03035
6270.6,0.03106
6247.46,0.03337
6224.31,0.02960
6201.16,0.03431
6178.02,0.03078
6154.87,0.02983
6131.73,0.02931
6108.58,0.02951
6085.44,0.02881
6062.29,0.02835
6039.14,0.02828
6016,0.03046
5992.85,0.02775
5969.71,0.03045
5946.56,0.02892
5923.41,0.03242
5900.27,0.03065
5877.12,0.03041
5853.98,0.03009
5830.83,0.03275
5807.68,0.03328
5784.54,0.03283
5761.39,0.03033
5738.25,0.03062
5715.1,0.03122
5691.96,0.03193
5668.81,0.03301
5645.66,0.03062
5622.52,0.02872
5599.37,0.02866
5576.23,0.02954
5553.08,0.02954
5529.93,0.02977
5506.79,0.03025
5483.64,0.02928
5460.5,0.02934
5437.35,0.02948
5414.21,0.02978
5391.06,0.03059
5367.91,0.02911
5344.77,0.03063
5321.62,0.03040
5298.48,0.02778
5275.33,0.03062
5252.18,0.02962
5229.04,0.03166
5205.89,0.03033
5182.75,0.02930
5159.6,0.02984
5136.45,0.03078
5113.31,0.02942
5090.16,0.02996
5067.02,0.02827
5043.87,0.03135
5020.73,0.02965
4997.58,0.02874
4974.43,0.03009
4951.29,0.03018
4928.14,0.02999
4905,0.03138
4881.85,0.03237
4858.7,0.03122
4835.56,0.02925
4812.41,0.02955
4789.27,0.02963
4766.12,0.03078
4742.97,0.03059
4719.83,0.03012
4696.68,0.03046
4673.54,0.03161
4650.39,0.02957
4627.25,0.03005
4604.1,0.03118
4580.95,0.03087
4557.81,0.02969
4534.66,0.03029
4511.52,0.03104
4488.37,0.03078
4465.22,0.02980
4442.08,0.03032
4418.93,0.03045
4395.79,0.03062
4372.64,0.03168
4349.49,0.03046
4326.35,0.03044
4303.2,0.02973
4280.06,0.03049
4256.91,0.03008
4233.77,0.02998
4210.62,0.02989
4187.47,0.03008
4164.33,0.02975
4141.18,0.02972
4118.04,0.03013
4094.89,0.03060
4071.74,0.03020
4048.6,0.03035
4025.45,0.02990
4002.31,0.03032
3979.16,0.02977
3956.02,0.03033
3932.87,0.02904
3909.72,0.03088
3886.58,0.02985
3863.43,0.02988
3840.29,0.03060
3817.14,0.02973
3793.99,0.03022
3770.85,0.02989
3747.7,0.03038
3724.56,0.02969
3701.41,0.02898
3678.26,0.03024
3655.12,0.02960
3631.97,0.02899
3608.83,0.02827
3585.68,0.02648
3562.54,0.02764
3539.39,0.02697
3516.24,0.02691
3493.1,0.02697
3469.95,0.02684
3446.81,0.02681
3423.66,0.02637
3400.51,0.02708
3377.37,0.02663
3354.22,0.02642
3331.08,0.02657
3307.93,0.02655
3284.78,0.02612
3261.64,0.02566
3238.49,0.02695
3215.35,0.02661
3192.2,0.02697
3169.06,0.02710
3145.91,0.02669
3122.76,0.02613
3099.62,0.02679
3076.47,0.02780
3053.33,0.02680
3030.18,0.02689
3007.03,0.02658
2983.89,0.02627
2960.74,0.02483
2937.6,0.02620
2914.45,0.02604
2891.31,0.02629
2868.16,0.02623
2845.01,0.02693
2821.87,0.02723
2798.72,0.02763
2775.58,0.02720
2752.43,0.02739
2729.28,0.02747
2706.14,0.02723
2682.99,0.02724
2659.85,0.02736
2636.7,0.02725
2613.55,0.02712
2590.41,0.02725
2567.26,0.02721
2544.12,0.02707
2520.97,0.02726
2497.83,0.02724
2474.68,0.02701
2451.53,0.02678
2428.39,0.02709
2405.24,0.02683
2382.1,0.02716
2358.95,0.02747
2335.8,0.02774
2312.66,0.02716
2289.51,0.02685
2266.37,0.02644
2243.22,0.02644
2220.07,0.02646
2196.93,0.02629
2173.78,0.02636
2150.64,0.02632
2127.49,0.02632
2104.35,0.02611
2081.2,0.02591
2058.05,0.02590
2034.91,0.02598
2011.76,0.02597
1988.62,0.02587
1965.47,0.02587
1942.32,0.02601
1919.18,0.02593
1896.03,0.02571
1872.89,0.02534
1849.74,0.02494
1826.6,0.02492
1803.45,0.02444
1780.3,0.02344
1757.16,0.02158
1734.01,0.02377
1710.87,0.02452
1687.72,0.02326
1664.57,0.02224
1641.43,0.02224
1618.28,0.02259
1595.14,0.02260
1571.99,0.02239
1548.84,0.02223
1525.7,0.02230
1502.55,0.02212
1479.41,0.02181
1456.26,0.02110
1433.12,0.02222
1409.97,0.02091
1386.82,0.02062
1363.68,0.02106
1340.53,0.02063
1317.39,0.01963
1294.24,0.02067
1271.09,0.02200
1247.95,0.02263
1224.8,0.02185
1201.66,0.02092
1178.51,0.02086
1155.36,0.02007
1132.22,0.02109
1109.07,0.02233
1085.93,0.02185
1062.78,0.02378
1039.64,0.02362
1016.49,0.02347
993.344,0.02466
970.198,0.02384
947.052,0.02286
923.906,0.02242
900.76,0.02292
877.614,0.02204
854.468,0.02174
831.323,0.02217
808.177,0.02116
785.031,0.02157
761.885,0.02016
738.739,0.02050
715.593,0.01935
692.447,0.02080
669.301,0.01977
646.156,0.01893
623.01,0.01684
599.864,0.01979

File: PEVA_0.18_IS_T_240809_R12.dpt
7497.33,0.02426
7474.19,0.04606
7451.04,0.04706
7427.9,0.03367
7404.75,0.02881
7381.6,0.04378
7358.46,0.04129
7335.31,0.04137
7312.17,0.04121
7289.02,0.03709
7265.87,0.04049
7242.73,0.04018
7219.58,0.03267
7196.44,0.03272
7173.29,0.04177
7150.15,0.02621
7127,0.04179
7103.85,0.03159
7080.71,0.03218
7057.56,0.03329
7034.42,0.03636
7011.27,0.03409
6988.12,0.03251
6964.98,0.03576
6941.83,0.03272
6918.69,0.03575
6895.54,0.03330
6872.39,0.03087
6849.25,0.03429
6826.1,0.03361
6802.96,0.03343
6779.81,0.03048
6756.67,0.04019
6733.52,0.03158
6710.37,0.03656
6687.23,0.02854
6664.08,0.02930
6640.94,0.03198
6617.79,0.03378
6594.64,0.02885
6571.5,0.03659
6548.35,0.03203
6525.21,0.03272
6502.06,0.02774
6478.92,0.03469
6455.77,0.03081
6432.62,0.02953
6409.48,0.02638
6386.33,0.03158
6363.19,0.03359
6340.04,0.03025
6316.89,0.02893
6293.75,0.02936
6270.6,0.02995
6247.46,0.03078
6224.31,0.03347
6201.16,0.03048
6178.02,0.03005
6154.87,0.03278
6131.73,0.03074
6108.58,0.02856
6085.44,0.03307
6062.29,0.03096
6039.14,0.02796
6016,0.02861
5992.85,0.02942
5969.71,0.02747
5946.56,0.02992
5923.41,0.02979
5900.27,0.03373
5877.12,0.03134
5853.98,0.02985
5830.83,0.03045
5807.68,0.03043
5784.54,0.02911
5761.39,0.03278
5738.25,0.03100
5715.1,0.03313
5691.96,0.02906
5668.81,0.02991
5645.66,0.02885
5622.52,0.02998
5599.37,0.03142
5576.23,0.03072
5553.08,0.03066
5529.93,0.03106
5506.79,0.03119
5483.64,0.03223
5460.5,0.03209
5437.35,0.03259
5414.21,0.02976
5391.06,0.03054
5367.91,0.02942
5344.77,0.03005
5321.62,0.03119
5298.48,0.03155
5275.33,0.03106
5252.18,0.03116
5229.04,0.03033
5205.89,0.03123
5182.75,0.03064
5159.6,0.02975
5136.45,0.02971
5113.31,0.03073
5090.16,0.03135
5067.02,0.02900
5043.87,0.02996
5020.73,0.03076
4997.58,0.03069
4974.43,0.03052
4951.29,0.02951
4928.14,0.03101
4905,0.03089
4881.85,0.03081
4858.7,0.02959
4835.56,0.03117
4812.41,0.03050
4789.27,0.03061
4766.12,0.03111
4742.97,0.03119
4719.83,0.03051
4696.68,0.03053
4673.54,0.02966
4650.39,0.03004
4627.25,0.03046
4604.1,0.02971
4580.95,0.02980
4557.81,0.02984
4534.66,0.03060
4511.52,0.03061
4488.37,0.02981
4465.22,0.03047
4442.08,0.02970
4418.93,0.03104
4395.79,0.03022
4372.64,0.02986
4349.49,0.02887
4326.35,0.03056
4303.2,0.03004
4280.06,0.02998
4256.91,0.02963
4233.77,0.02929
4210.62,0.03012
4187.47,0.02963
4164.33,0.03058
4141.18,0.03044
4118.04,0.03048
4094.89,0.03077
4071.74,0.02954
4048.6,0.03027
4025.45,0.03048
4002.31,0.02989
3979.16,0.02984
3956.02,0.03069
3932.87,0.03066
3909.72,0.02994
3886.58,0.03010
3863.43,0.02972
3840.29,0.03037
3817.14,0.03009
3793.99,0.02902
3770.85,0.03078
3747.7,0.03145
3724.56,0.03025
3701.41,0.02946
3678.26,0.02955
3655.12,0.02919
3631.97,0.02893
3608.83,0.02968
3585.68,0.02733
3562.54,0.02729
3539.39,0.02669
3516.24,0.02645
3493.1,0.02696
3469.95,0.02580
3446.81,0.02623
3423.66,0.02658
3400.51,0.02664
3377.37,0.02666
3354.22,0.02638
3331.08,0.02628
3307.93,0.02673
3284.78,0.02704
3261.64,0.02633
3238.49,0.02718
3215.35,0.02618
3192.2,0.02666
3169.06,0.02719
3145.91,0.02645
3122.76,0.02647
3099.62,0.02728
3076.47,0.02705
3053.33,0.02693
3030.18,0.02681
3007.03,0.02668
2983.89,0.02585
2960.74,0.02570
2937.6,0.02600
2914.45,0.02633
2891.31,0.02632
2868.16,0.02653
2845.01,0.02728
2821.87,0.02744
2798.72,0.02769
2775.58,0.02767
2752.43,0.02747
2729.28,0.02732
2706.14,0.02787
2682.99,0.02737
2659.85,0.02729
2636.7,0.02775
2613.55,0.02689
2590.41,0.02708
2567.26,0.02686
2544.12,0.02758
2520.97,0.02680
2497.83,0.02714
2474.68,0.02688
2451.53,0.02683
2428.39,0.02702
2405.24,0.02720
2382.1,0.02697
2358.95,0.02775
2335.8,0.02733
2312.66,0.02670
2289.51,0.02632
2266.37,0.02666
2243.22,0.02658
2220.07,0.02654
2196.93,0.02619
2173.78,0.02616
2150.64,0.02650
2127.49,0.02616
2104.35,0.02608
2081.2,0.02575
2058.05,0.02641
2034.91,0.02600
2011.76,0.02577
1988.62,0.02553
1965.47,0.02578
1942.32,0.02539
1919.18,0.02570
1896.03,0.02567
1872.89,0.02505
1849.74,0.02488
1826.6,0.02480
1803.45,0.02419
1780.3,0.02347
1757.16,0.02155
1734.01,0.02363
1710.87,0.02412
1687.72,0.02326
1664.57,0.02180
1641.43,0.02181
1618.28,0.02230
1595.14,0.02233
1571.99,0.02222
1548.84,0.02235
1525.7,0.02268
1502.55,0.02186
1479.41,0.02212
1456.26,0.02208
1433.12,0.02132
1409.97,0.02133
1386.82,0.02081
1363.68,0.02117
1340.53,0.02018
1317.39,0.01967
1294.24,0.02067
1271.09,0.02187
1247.95,0.02255
1224.8,0.02218
1201.66,0.02151
1178.51,0.02043
1155.36,0.02000
1132.22,0.02121
1109.07,0.02223
1085.93,0.02148
1062.78,0.02396
1039.64,0.02338
1016.49,0.02285
993.344,0.02486
970.198,0.02416
947.052,0.02322
923.906,0.02281
900.76,0.02236
877.614,0.02238
854.468,0.02193
831.323,0.02193
808.177,0.02129
785.031,0.02066
761.885,0.02087
738.739,0.02111
715.593,0.02025
692.447,0.01811
669.301,0.01879
646.156,0.01909
623.01,0.01969
599.864,0.01863