Folder: fsri_materials_database/01_Data/PEVA/FTIR/IS (part 3)

File: PEVA_0.10_IS_T_240808_R2.dpt
7496.93,0.04108
7473.78,0.03916
7450.64,0.04355
7427.49,0.03243
7404.35,0.04380
7381.2,0.03973
7358.06,0.04090
7334.91,0.02839
7311.77,0.02158
7288.62,0.03508
7265.48,0.04271
7242.34,0.03502
7219.19,0.02836
7196.05,0.03487
7172.9,0.02959
7149.76,0.02656
7126.61,0.03939
7103.47,0.03202
7080.32,0.02667
7057.18,0.02751
7034.03,0.04426
7010.89,0.02785
6987.74,0.02155
6964.6,0.04448
6941.46,0.04098
6918.31,0.03734
6895.17,0.03068
6872.02,0.03039
6848.88,0.03417
6825.73,0.03219
6802.59,0.03214
6779.44,0.02764
6756.3,0.03205
6733.15,0.03848
6710.01,0.03638
6686.86,0.02769
6663.72,0.02938
6640.58,0.02859
6617.43,0.03294
6594.29,0.03157
6571.14,0.03649
6548,0.02859
6524.85,0.03110
6501.71,0.03111
6478.56,0.03431
6455.42,0.02781
6432.27,0.03140
6409.13,0.03211
6385.98,0.02926
6362.84,0.02850
6339.7,0.03540
6316.55,0.03197
6293.41,0.02766
6270.26,0.02738
6247.12,0.02788
6223.97,0.02638
6200.83,0.02951
6177.68,0.02753
6154.54,0.03100
6131.39,0.03090
6108.25,0.03201
6085.1,0.02739
6061.96,0.02860
6038.82,0.03044
6015.67,0.03152
5992.53,0.02866
5969.38,0.02967
5946.24,0.02699
5923.09,0.02991
5899.95,0.02880
5876.8,0.02676
5853.66,0.02820
5830.51,0.02674
5807.37,0.03078
5784.22,0.03169
5761.08,0.02780
5737.94,0.03011
5714.79,0.03179
5691.65,0.03057
5668.5,0.03060
5645.36,0.03007
5622.21,0.02985
5599.07,0.02690
5575.92,0.02865
5552.78,0.02935
5529.63,0.02920
5506.49,0.02930
5483.34,0.02938
5460.2,0.02956
5437.06,0.02537
5413.91,0.02757
5390.77,0.03183
5367.62,0.02934
5344.48,0.02886
5321.33,0.02944
5298.19,0.02988
5275.04,0.03053
5251.9,0.02890
5228.75,0.02898
5205.61,0.03075
5182.46,0.02941
5159.32,0.03079
5136.18,0.02981
5113.03,0.02990
5089.89,0.03070
5066.74,0.02944
5043.6,0.02711
5020.45,0.02932
4997.31,0.02863
4974.16,0.03051
4951.02,0.02929
4927.87,0.02983
4904.73,0.02879
4881.58,0.02899
4858.44,0.02856
4835.3,0.02908
4812.15,0.02880
4789.01,0.02901
4765.86,0.03122
4742.72,0.02986
4719.57,0.03001
4696.43,0.02976
4673.28,0.03023
4650.14,0.02845
4626.99,0.02922
4603.85,0.02906
4580.7,0.02899
4557.56,0.02995
4534.42,0.02973
4511.27,0.02915
4488.13,0.02964
4464.98,0.02894
4441.84,0.02899
4418.69,0.02953
4395.55,0.03063
4372.4,0.02947
4349.26,0.02823
4326.11,0.02907
4302.97,0.02951
4279.82,0.02978
4256.68,0.02945
4233.54,0.02978
4210.39,0.02954
4187.25,0.02896
4164.1,0.03023
4140.96,0.02948
4117.81,0.02922
4094.67,0.02960
4071.52,0.02890
4048.38,0.02910
4025.23,0.02961
4002.09,0.02883
3978.94,0.02917
3955.8,0.02918
3932.66,0.03044
3909.51,0.02925
3886.37,0.03023
3863.22,0.02804
3840.08,0.02956
3816.93,0.02985
3793.79,0.03010
3770.64,0.02977
3747.5,0.02819
3724.35,0.02953
3701.21,0.02856
3678.06,0.02938
3654.92,0.02794
3631.78,0.02964
3608.63,0.02738
3585.49,0.02648
3562.34,0.02664
3539.2,0.02686
3516.05,0.02578
3492.91,0.02616
3469.76,0.02606
3446.62,0.02636
3423.47,0.02516
3400.33,0.02609
3377.18,0.02656
3354.04,0.02584
3330.9,0.02482
3307.75,0.02538
3284.61,0.02548
3261.46,0.02558
3238.32,0.02678
3215.17,0.02579
3192.03,0.02630
3168.88,0.02633
3145.74,0.02562
3122.59,0.02606
3099.45,0.02644
3076.3,0.02673
3053.16,0.02622
3030.02,0.02589
3006.87,0.02584
2983.73,0.02576
2960.58,0.02565
2937.44,0.02492
2914.29,0.02598
2891.15,0.02567
2868,0.02529
2844.86,0.02593
2821.71,0.02649
2798.57,0.02618
2775.42,0.02683
2752.28,0.02634
2729.14,0.02654
2705.99,0.02673
2682.85,0.02672
2659.7,0.02636
2636.56,0.02685
2613.41,0.02626
2590.27,0.02704
2567.12,0.02620
2543.98,0.02611
2520.83,0.02616
2497.69,0.02639
2474.55,0.02620
2451.4,0.02624
2428.26,0.02635
2405.11,0.02595
2381.97,0.02646
2358.82,0.02632
2335.68,0.02627
2312.53,0.02578
2289.39,0.02589
2266.24,0.02596
2243.1,0.02527
2219.95,0.02530
2196.81,0.02543
2173.67,0.02526
2150.52,0.02555
2127.38,0.02550
2104.23,0.02502
2081.09,0.02487
2057.94,0.02518
2034.8,0.02487
2011.65,0.02487
1988.51,0.02495
1965.36,0.02501
1942.22,0.02507
1919.07,0.02447
1895.93,0.02459
1872.79,0.02420
1849.64,0.02435
1826.5,0.02406
1803.35,0.02308
1780.21,0.02270
1757.06,0.02118
1733.92,0.02319
1710.77,0.02342
1687.63,0.02238
1664.48,0.02111
1641.34,0.02159
1618.19,0.02192
1595.05,0.02100
1571.91,0.02100
1548.76,0.02150
1525.62,0.02119
1502.47,0.02149
1479.33,0.02064
1456.18,0.02075
1433.04,0.02144
1409.89,0.02046
1386.75,0.02048
1363.6,0.02064
1340.46,0.01963
1317.31,0.01898
1294.17,0.01955
1271.03,0.02118
1247.88,0.02155
1224.74,0.02112
1201.59,0.02072
1178.45,0.01995
1155.3,0.01979
1132.16,0.01972
1109.01,0.02071
1085.87,0.02129
1062.72,0.02376
1039.58,0.02198
1016.43,0.02212
993.29,0.02310
970.145,0.02334
947,0.02237
923.856,0.02145
900.711,0.02110
877.567,0.02107
854.422,0.02087
831.277,0.02063
808.133,0.02021
784.988,0.02031
761.844,0.01969
738.699,0.01883
715.554,0.01835
692.41,0.01831
669.265,0.01926
646.12,0.01770
622.976,0.01727
599.831,0.01598

File: PEVA_0.10_IS_T_240808_R3.dpt
7496.93,0.04155
7473.78,0.04451
7450.64,0.02211
7427.49,0.02892
7404.35,0.03704
7381.2,0.03027
7358.06,0.01869
7334.91,0.03532
7311.77,0.04921
7288.62,0.04041
7265.48,0.03745
7242.34,0.03463
7219.19,0.02044
7196.05,0.02852
7172.9,0.03407
7149.76,0.02842
7126.61,0.03320
7103.47,0.03388
7080.32,0.03365
7057.18,0.02785
7034.03,0.02303
7010.89,0.02786
6987.74,0.03151
6964.6,0.03411
6941.46,0.03288
6918.31,0.03261
6895.17,0.02912
6872.02,0.03588
6848.88,0.03503
6825.73,0.03339
6802.59,0.03303
6779.44,0.03097
6756.3,0.02191
6733.15,0.03411
6710.01,0.02706
6686.86,0.03274
6663.72,0.03206
6640.58,0.03794
6617.43,0.03434
6594.29,0.03467
6571.14,0.03446
6548,0.03132
6524.85,0.03312
6501.71,0.03182
6478.56,0.04072
6455.42,0.03290
6432.27,0.03189
6409.13,0.03000
6385.98,0.03011
6362.84,0.03053
6339.7,0.03197
6316.55,0.03805
6293.41,0.02820
6270.26,0.02744
6247.12,0.02848
6223.97,0.02822
6200.83,0.02395
6177.68,0.03077
6154.54,0.02841
6131.39,0.02363
6108.25,0.02960
6085.1,0.02966
6061.96,0.02657
6038.82,0.02974
6015.67,0.03150
5992.53,0.03244
5969.38,0.02783
5946.24,0.03111
5923.09,0.02686
5899.95,0.02951
5876.8,0.02730
5853.66,0.02890
5830.51,0.02980
5807.37,0.02871
5784.22,0.02834
5761.08,0.02639
5737.94,0.02701
5714.79,0.02844
5691.65,0.03040
5668.5,0.02639
5645.36,0.03091
5622.21,0.02923
5599.07,0.02954
5575.92,0.02893
5552.78,0.02976
5529.63,0.03035
5506.49,0.02703
5483.34,0.02995
5460.2,0.02966
5437.06,0.02788
5413.91,0.02657
5390.77,0.02984
5367.62,0.03008
5344.48,0.03076
5321.33,0.02984
5298.19,0.02762
5275.04,0.02656
5251.9,0.03088
5228.75,0.02922
5205.61,0.02891
5182.46,0.02960
5159.32,0.02963
5136.18,0.03055
5113.03,0.02808
5089.89,0.02909
5066.74,0.02979
5043.6,0.02906
5020.45,0.02965
4997.31,0.03015
4974.16,0.02965
4951.02,0.02841
4927.87,0.02934
4904.73,0.02937
4881.58,0.03031
4858.44,0.02976
4835.3,0.02944
4812.15,0.02942
4789.01,0.02804
4765.86,0.02990
4742.72,0.02986
4719.57,0.02935
4696.43,0.02949
4673.28,0.03025
4650.14,0.02966
4626.99,0.02868
4603.85,0.03010
4580.7,0.02995
4557.56,0.02913
4534.42,0.03044
4511.27,0.02874
4488.13,0.02827
4464.98,0.02917
4441.84,0.02832
4418.69,0.02979
4395.55,0.03044
4372.4,0.02899
4349.26,0.02899
4326.11,0.02900
4302.97,0.02944
4279.82,0.02896
4256.68,0.02999
4233.54,0.02864
4210.39,0.02919
4187.25,0.02835
4164.1,0.02940
4140.96,0.02865
4117.81,0.02889
4094.67,0.02882
4071.52,0.02998
4048.38,0.02989
4025.23,0.02922
4002.09,0.02999
3978.94,0.02922
3955.8,0.02899
3932.66,0.02867
3909.51,0.02930
3886.37,0.02998
3863.22,0.03002
3840.08,0.02958
3816.93,0.02844
3793.79,0.02916
3770.64,0.02951
3747.5,0.02866
3724.35,0.02902
3701.21,0.02812
3678.06,0.02857
3654.92,0.02818
3631.78,0.02777
3608.63,0.02730
3585.49,0.02578
3562.34,0.02583
3539.2,0.02559
3516.05,0.02574
3492.91,0.02536
3469.76,0.02627
3446.62,0.02628
3423.47,0.02502
3400.33,0.02592
3377.18,0.02613
3354.04,0.02490
3330.9,0.02543
3307.75,0.02622
3284.61,0.02531
3261.46,0.02604
3238.32,0.02555
3215.17,0.02552
3192.03,0.02606
3168.88,0.02612
3145.74,0.02653
3122.59,0.02642
3099.45,0.02631
3076.3,0.02622
3053.16,0.02620
3030.02,0.02583
3006.87,0.02530
2983.73,0.02545
2960.58,0.02472
2937.44,0.02516
2914.29,0.02558
2891.15,0.02655
2868,0.02593
2844.86,0.02584
2821.71,0.02652
2798.57,0.02664
2775.42,0.02716
2752.28,0.02682
2729.14,0.02668
2705.99,0.02674
2682.85,0.02639
2659.7,0.02637
2636.56,0.02651
2613.41,0.02639
2590.27,0.02631
2567.12,0.02642
2543.98,0.02651
2520.83,0.02586
2497.69,0.02613
2474.55,0.02676
2451.4,0.02609
2428.26,0.02649
2405.11,0.02626
2381.97,0.02569
2358.82,0.02738
2335.68,0.02576
2312.53,0.02619
2289.39,0.02606
2266.24,0.02610
2243.1,0.02548
2219.95,0.02548
2196.81,0.02522
2173.67,0.02554
2150.52,0.02563
2127.38,0.02524
2104.23,0.02535
2081.09,0.02507
2057.94,0.02499
2034.8,0.02511
2011.65,0.02511
1988.51,0.02497
1965.36,0.02484
1942.22,0.02481
1919.07,0.02469
1895.93,0.02447
1872.79,0.02459
1849.64,0.02445
1826.5,0.02356
1803.35,0.02321
1780.21,0.02269
1757.06,0.02147
1733.92,0.02295
1710.77,0.02371
1687.63,0.02209
1664.48,0.02152
1641.34,0.02146
1618.19,0.02199
1595.05,0.02191
1571.91,0.02163
1548.76,0.02120
1525.62,0.02158
1502.47,0.02140
1479.33,0.02118
1456.18,0.02095
1433.04,0.02056
1409.89,0.02022
1386.75,0.02025
1363.6,0.02031
1340.46,0.01964
1317.31,0.01948
1294.17,0.01990
1271.03,0.02148
1247.88,0.02195
1224.74,0.02130
1201.59,0.02029
1178.45,0.01980
1155.3,0.01990
1132.16,0.02052
1109.01,0.02139
1085.87,0.02106
1062.72,0.02354
1039.58,0.02221
1016.43,0.02255
993.29,0.02357
970.145,0.02372
947,0.02245
923.856,0.02199
900.711,0.02162
877.567,0.02124
854.422,0.02147
831.277,0.02006
808.133,0.02147
784.988,0.02033
761.844,0.01921
738.699,0.01919
715.554,0.01814
692.41,0.01810
669.265,0.01780
646.12,0.01798
622.976,0.01704
599.831,0.01458

File: PEVA_0.10_IS_T_240808_R4.dpt
7496.93,0.02595
7473.78,0.04107
7450.64,0.02529
7427.49,0.04010
7404.35,0.02404
7381.2,0.03477
7358.06,0.04716
7334.91,0.03821
7311.77,0.03721
7288.62,0.02459
7265.48,0.03351
7242.34,0.02031
7219.19,0.03343
7196.05,0.02591
7172.9,0.03098
7149.76,0.02401
7126.61,0.03783
7103.47,0.03421
7080.32,0.03454
7057.18,0.03106
7034.03,0.03065
7010.89,0.03568
6987.74,0.02238
6964.6,0.04418
6941.46,0.03243
6918.31,0.03652
6895.17,0.03233
6872.02,0.03450
6848.88,0.03424
6825.73,0.03105
6802.59,0.04041
6779.44,0.02633
6756.3,0.02743
6733.15,0.03159
6710.01,0.03323
6686.86,0.02995
6663.72,0.03031
6640.58,0.03199
6617.43,0.03349
6594.29,0.02867
6571.14,0.03224
6548,0.03284
6524.85,0.03445
6501.71,0.02534
6478.56,0.02824
6455.42,0.02772
6432.27,0.03186
6409.13,0.02651
6385.98,0.02374
6362.84,0.03391
6339.7,0.02895
6316.55,0.02886
6293.41,0.02987
6270.26,0.03271
6247.12,0.03457
6223.97,0.02922
6200.83,0.03232
6177.68,0.03017
6154.54,0.02994
6131.39,0.03327
6108.25,0.02823
6085.1,0.02808
6061.96,0.02999
6038.82,0.02830
6015.67,0.03128
5992.53,0.02933
5969.38,0.02591
5946.24,0.03032
5923.09,0.02548
5899.95,0.02717
5876.8,0.02890
5853.66,0.03314
5830.51,0.02907
5807.37,0.02587
5784.22,0.02978
5761.08,0.02629
5737.94,0.02952
5714.79,0.03037
5691.65,0.03060
5668.5,0.03229
5645.36,0.02866
5622.21,0.03047
5599.07,0.02796
5575.92,0.02975
5552.78,0.02810
5529.63,0.02999
5506.49,0.02863
5483.34,0.02826
5460.2,0.02956
5437.06,0.02829
5413.91,0.03004
5390.77,0.02735
5367.62,0.02933
5344.48,0.02727
5321.33,0.03061
5298.19,0.02911
5275.04,0.02924
5251.9,0.02931
5228.75,0.03010
5205.61,0.02839
5182.46,0.03002
5159.32,0.02960
5136.18,0.03030
5113.03,0.02905
5089.89,0.02947
5066.74,0.03057
5043.6,0.02974
5020.45,0.02871
4997.31,0.02935
4974.16,0.02881
4951.02,0.03037
4927.87,0.03040
4904.73,0.02942
4881.58,0.02778
4858.44,0.02878
4835.3,0.03110
4812.15,0.02958
4789.01,0.02847
4765.86,0.02980
4742.72,0.03031
4719.57,0.02976
4696.43,0.02905
4673.28,0.02925
4650.14,0.02892
4626.99,0.02990
4603.85,0.02974
4580.7,0.02978
4557.56,0.02894
4534.42,0.02963
4511.27,0.02940
4488.13,0.02868
4464.98,0.02892
4441.84,0.02914
4418.69,0.02891
4395.55,0.02980
4372.4,0.02896
4349.26,0.02910
4326.11,0.02891
4302.97,0.02875
4279.82,0.02923
4256.68,0.02999
4233.54,0.02934
4210.39,0.02945
4187.25,0.02913
4164.1,0.02902
4140.96,0.02923
4117.81,0.02897
4094.67,0.02845
4071.52,0.03011
4048.38,0.02950
4025.23,0.02916
4002.09,0.02916
3978.94,0.02993
3955.8,0.02876
3932.66,0.02970
3909.51,0.02957
3886.37,0.02980
3863.22,0.02944
3840.08,0.03000
3816.93,0.02994
3793.79,0.02947
3770.64,0.02990
3747.5,0.03004
3724.35,0.02898
3701.21,0.02845
3678.06,0.02855
3654.92,0.02774
3631.78,0.02819
3608.63,0.02728
3585.49,0.02686
3562.34,0.02667
3539.2,0.02617
3516.05,0.02644
3492.91,0.02667
3469.76,0.02498
3446.62,0.02499
3423.47,0.02660
3400.33,0.02572
3377.18,0.02507
3354.04,0.02515
3330.9,0.02526
3307.75,0.02460
3284.61,0.02493
3261.46,0.02584
3238.32,0.02563
3215.17,0.02564
3192.03,0.02581
3168.88,0.02606
3145.74,0.02676
3122.59,0.02624
3099.45,0.02622
3076.3,0.02636
3053.16,0.02620
3030.02,0.02577
3006.87,0.02634
2983.73,0.02543
2960.58,0.02478
2937.44,0.02529
2914.29,0.02571
2891.15,0.02593
2868,0.02607
2844.86,0.02607
2821.71,0.02664
2798.57,0.02652
2775.42,0.02662
2752.28,0.02679
2729.14,0.02695
2705.99,0.02631
2682.85,0.02656
2659.7,0.02634
2636.56,0.02671
2613.41,0.02632
2590.27,0.02650
2567.12,0.02681
2543.98,0.02636
2520.83,0.02609
2497.69,0.02660
2474.55,0.02608
2451.4,0.02667
2428.26,0.02650
2405.11,0.02625
2381.97,0.02674
2358.82,0.02639
2335.68,0.02643
2312.53,0.02582
2289.39,0.02634
2266.24,0.02556
2243.1,0.02597
2219.95,0.02540
2196.81,0.02587
2173.67,0.02509
2150.52,0.02549
2127.38,0.02562
2104.23,0.02569
2081.09,0.02517
2057.94,0.02516
2034.8,0.02488
2011.65,0.02543
1988.51,0.02518
1965.36,0.02508
1942.22,0.02518
1919.07,0.02471
1895.93,0.02446
1872.79,0.02436
1849.64,0.02413
1826.5,0.02394
1803.35,0.02351
1780.21,0.02239
1757.06,0.02140
1733.92,0.02296
1710.77,0.02390
1687.63,0.02263
1664.48,0.02103
1641.34,0.02138
1618.19,0.02133
1595.05,0.02160
1571.91,0.02148
1548.76,0.02057
1525.62,0.02124
1502.47,0.02124
1479.33,0.02113
1456.18,0.02068
1433.04,0.02065
1409.89,0.02009
1386.75,0.02021
1363.6,0.01966
1340.46,0.01979
1317.31,0.01878
1294.17,0.01977
1271.03,0.02123
1247.88,0.02175
1224.74,0.02119
1201.59,0.02052
1178.45,0.01995
1155.3,0.01914
1132.16,0.02024
1109.01,0.02105
1085.87,0.02152
1062.72,0.02230
1039.58,0.02275
1016.43,0.02249
993.29,0.02266
970.145,0.02276
947,0.02236
923.856,0.02194
900.711,0.02111
877.567,0.02117
854.422,0.02109
831.277,0.02081
808.133,0.02048
784.988,0.02044
761.844,0.01982
738.699,0.01902
715.554,0.01912
692.41,0.01831
669.265,0.01696
646.12,0.01772
622.976,0.01746
599.831,0.01798

File: PEVA_0.10_IS_T_240808_R5.dpt
7496.93,0.03726
7473.78,0.04052
7450.64,0.05190
7427.49,0.03356
7404.35,0.03977
7381.2,0.04063
7358.06,0.04497
7334.91,0.03393
7311.77,0.03528
7288.62,0.02831
7265.48,0.02997
7242.34,0.02612
7219.19,0.03008
7196.05,0.03392
7172.9,0.03165
7149.76,0.02931
7126.61,0.03448
7103.47,0.03026
7080.32,0.04175
7057.18,0.04274
7034.03,0.03213
7010.89,0.02726
6987.74,0.02624
6964.6,0.03547
6941.46,0.02549
6918.31,0.03005
6895.17,0.03337
6872.02,0.04077
6848.88,0.03350
6825.73,0.03721
6802.59,0.02796
6779.44,0.03203
6756.3,0.03222
6733.15,0.03062
6710.01,0.03458
6686.86,0.03260
6663.72,0.03108
6640.58,0.03186
6617.43,0.03195
6594.29,0.02767
6571.14,0.03609
6548,0.03453
6524.85,0.03405
6501.71,0.03184
6478.56,0.03133
6455.42,0.03477
6432.27,0.03082
6409.13,0.03185
6385.98,0.02808
6362.84,0.02761
6339.7,0.03017
6316.55,0.02583
6293.41,0.03282
6270.26,0.02985
6247.12,0.03311
6223.97,0.02839
6200.83,0.03072
6177.68,0.02708
6154.54,0.02881
6131.39,0.03159
6108.25,0.03103
6085.1,0.02651
6061.96,0.03032
6038.82,0.02995
6015.67,0.02797
5992.53,0.02867
5969.38,0.03018
5946.24,0.02990
5923.09,0.03063
5899.95,0.03263
5876.8,0.03122
5853.66,0.02784
5830.51,0.02917
5807.37,0.02840
5784.22,0.02798
5761.08,0.03134
5737.94,0.02698
5714.79,0.02894
5691.65,0.03031
5668.5,0.03106
5645.36,0.03128
5622.21,0.03013
5599.07,0.03104
5575.92,0.03228
5552.78,0.02905
5529.63,0.03125
5506.49,0.03024
5483.34,0.02935
5460.2,0.03023
5437.06,0.03170
5413.91,0.03025
5390.77,0.02857
5367.62,0.02845
5344.48,0.02829
5321.33,0.02995
5298.19,0.02889
5275.04,0.02983
5251.9,0.03074
5228.75,0.02915
5205.61,0.02875
5182.46,0.03061
5159.32,0.03016
5136.18,0.02907
5113.03,0.03019
5089.89,0.02865
5066.74,0.02879
5043.6,0.02876
5020.45,0.02885
4997.31,0.02945
4974.16,0.03002
4951.02,0.02893
4927.87,0.02943
4904.73,0.02961
4881.58,0.02966
4858.44,0.03075
4835.3,0.03010
4812.15,0.02826
4789.01,0.02934
4765.86,0.02943
4742.72,0.02881
4719.57,0.02915
4696.43,0.03007
4673.28,0.02986
4650.14,0.02995
4626.99,0.03022
4603.85,0.02925
4580.7,0.02835
4557.56,0.03050
4534.42,0.02849
4511.27,0.02997
4488.13,0.02918
4464.98,0.02882
4441.84,0.02961
4418.69,0.02919
4395.55,0.02910
4372.4,0.02950
4349.26,0.02897
4326.11,0.02876
4302.97,0.02935
4279.82,0.02935
4256.68,0.02958
4233.54,0.03048
4210.39,0.02957
4187.25,0.02924
4164.1,0.02923
4140.96,0.02935
4117.81,0.02910
4094.67,0.02954
4071.52,0.02902
4048.38,0.02980
4025.23,0.02893
4002.09,0.02953
3978.94,0.02939
3955.8,0.02942
3932.66,0.02941
3909.51,0.02974
3886.37,0.02985
3863.22,0.02885
3840.08,0.02982
3816.93,0.02992
3793.79,0.02906
3770.64,0.02941
3747.5,0.02872
3724.35,0.02961
3701.21,0.02832
3678.06,0.03058
3654.92,0.02786
3631.78,0.02845
3608.63,0.02837
3585.49,0.02700
3562.34,0.02710
3539.2,0.02680
3516.05,0.02624
3492.91,0.02610
3469.76,0.02599
3446.62,0.02594
3423.47,0.02507
3400.33,0.02543
3377.18,0.02594
3354.04,0.02625
3330.9,0.02528
3307.75,0.02558
3284.61,0.02635
3261.46,0.02610
3238.32,0.02683
3215.17,0.02667
3192.03,0.02600
3168.88,0.02602
3145.74,0.02638
3122.59,0.02639
3099.45,0.02637
3076.3,0.02634
3053.16,0.02624
3030.02,0.02637
3006.87,0.02609
2983.73,0.02490
2960.58,0.02544
2937.44,0.02511
2914.29,0.02567
2891.15,0.02612
2868,0.02598
2844.86,0.02575
2821.71,0.02705
2798.57,0.02641
2775.42,0.02673
2752.28,0.02669
2729.14,0.02689
2705.99,0.02680
2682.85,0.02697
2659.7,0.02682
2636.56,0.02683
2613.41,0.02633
2590.27,0.02644
2567.12,0.02688
2543.98,0.02647
2520.83,0.02649
2497.69,0.02661
2474.55,0.02673
2451.4,0.02627
2428.26,0.02617
2405.11,0.02658
2381.97,0.02637
2358.82,0.02702
2335.68,0.02685
2312.53,0.02660
2289.39,0.02579
2266.24,0.02591
2243.1,0.02621
2219.95,0.02603
2196.81,0.02573
2173.67,0.02574
2150.52,0.02611
2127.38,0.02548
2104.23,0.02561
2081.09,0.02509
2057.94,0.02555
2034.8,0.02500
2011.65,0.02513
1988.51,0.02520
1965.36,0.02522
1942.22,0.02530
1919.07,0.02506
1895.93,0.02488
1872.79,0.02479
1849.64,0.02468
1826.5,0.02402
1803.35,0.02383
1780.21,0.02289
1757.06,0.02142
1733.92,0.02301
1710.77,0.02405
1687.63,0.02228
1664.48,0.02162
1641.34,0.02145
1618.19,0.02198
1595.05,0.02180
1571.91,0.02119
1548.76,0.02151
1525.62,0.02199
1502.47,0.02231
1479.33,0.02167
1456.18,0.02098
1433.04,0.02134
1409.89,0.02069
1386.75,0.02017
1363.6,0.02065
1340.46,0.02009
1317.31,0.01932
1294.17,0.02023
1271.03,0.02152
1247.88,0.02216
1224.74,0.02122
1201.59,0.02091
1178.45,0.01989
1155.3,0.01952
1132.16,0.02008
1109.01,0.02197
1085.87,0.02104
1062.72,0.02356
1039.58,0.02282
1016.43,0.02243
993.29,0.02388
970.145,0.02369
947,0.02253
923.856,0.02197
900.711,0.02240
877.567,0.02139
854.422,0.02112
831.277,0.02137
808.133,0.02148
784.988,0.02051
761.844,0.02032
738.699,0.02066
715.554,0.01941
692.41,0.01807
669.265,0.01944
646.12,0.01793
622.976,0.01915
599.831,0.01691

File: PEVA_0.10_IS_T_240808_R6.dpt
7496.93,0.03497
7473.78,0.03415
7450.64,0.04268
7427.49,0.03211
7404.35,0.04352
7381.2,0.03707
7358.06,0.03239
7334.91,0.04611
7311.77,0.03396
7288.62,0.03335
7265.48,0.04102
7242.34,0.03779
7219.19,0.03470
7196.05,0.03610
7172.9,0.04295
7149.76,0.04016
7126.61,0.02413
7103.47,0.02012
7080.32,0.02934
7057.18,0.02633
7034.03,0.03134
7010.89,0.03579
6987.74,0.02679
6964.6,0.02654
6941.46,0.04231
6918.31,0.02635
6895.17,0.02970
6872.02,0.03062
6848.88,0.03081
6825.73,0.03246
6802.59,0.03798
6779.44,0.03512
6756.3,0.02988
6733.15,0.03211
6710.01,0.03177
6686.86,0.03268
6663.72,0.03579
6640.58,0.03824
6617.43,0.03643
6594.29,0.02754
6571.14,0.03015
6548,0.02625
6524.85,0.03050
6501.71,0.02522
6478.56,0.03609
6455.42,0.02804
6432.27,0.02746
6409.13,0.03110
6385.98,0.02745
6362.84,0.02802
6339.7,0.02881
6316.55,0.03325
6293.41,0.02466
6270.26,0.03336
6247.12,0.02746
6223.97,0.02683
6200.83,0.03135
6177.68,0.02937
6154.54,0.03098
6131.39,0.02774
6108.25,0.03160
6085.1,0.02982
6061.96,0.03252
6038.82,0.02703
6015.67,0.02513
5992.53,0.02801
5969.38,0.03136
5946.24,0.03104
5923.09,0.02950
5899.95,0.02754
5876.8,0.02789
5853.66,0.02819
5830.51,0.02866
5807.37,0.03083
5784.22,0.02832
5761.08,0.03189
5737.94,0.03047
5714.79,0.03129
5691.65,0.02927
5668.5,0.03072
5645.36,0.02967
5622.21,0.03054
5599.07,0.03190
5575.92,0.02938
5552.78,0.02972
5529.63,0.03043
5506.49,0.02736
5483.34,0.02940
5460.2,0.02739
5437.06,0.02832
5413.91,0.02882
5390.77,0.03175
5367.62,0.02981
5344.48,0.03135
5321.33,0.02825
5298.19,0.02888
5275.04,0.02881
5251.9,0.02963
5228.75,0.03123
5205.61,0.03146
5182.46,0.03054
5159.32,0.03054
5136.18,0.02953
5113.03,0.02890
5089.89,0.02887
5066.74,0.02978
5043.6,0.02999
5020.45,0.03035
4997.31,0.02953
4974.16,0.02913
4951.02,0.02955
4927.87,0.03036
4904.73,0.03030
4881.58,0.02962
4858.44,0.02937
4835.3,0.02997
4812.15,0.03070
4789.01,0.02931
4765.86,0.03026
4742.72,0.03112
4719.57,0.03039
4696.43,0.02949
4673.28,0.02977
4650.14,0.02841
4626.99,0.03105
4603.85,0.03059
4580.7,0.03077
4557.56,0.03073
4534.42,0.02962
4511.27,0.03065
4488.13,0.02992
4464.98,0.03066
4441.84,0.02976
4418.69,0.02934
4395.55,0.02983
4372.4,0.02973
4349.26,0.02986
4326.11,0.03048
4302.97,0.03034
4279.82,0.02943
4256.68,0.03009
4233.54,0.02970
4210.39,0.02989
4187.25,0.02950
4164.1,0.03059
4140.96,0.03071
4117.81,0.03023
4094.67,0.03028
4071.52,0.02928
4048.38,0.02990
4025.23,0.03026
4002.09,0.02987
3978.94,0.03005
3955.8,0.03007
3932.66,0.02944
3909.51,0.03003
3886.37,0.03030
3863.22,0.02947
3840.08,0.03008
3816.93,0.03102
3793.79,0.02949
3770.64,0.02937
3747.5,0.03148
3724.35,0.03011
3701.21,0.02953
3678.06,0.02933
3654.92,0.02939
3631.78,0.02872
3608.63,0.02853
3585.49,0.02679
3562.34,0.02703
3539.2,0.02804
3516.05,0.02673
3492.91,0.02694
3469.76,0.02592
3446.62,0.02666
3423.47,0.02590
3400.33,0.02599
3377.18,0.02588
3354.04,0.02684
3330.9,0.02656
3307.75,0.02675
3284.61,0.02677
3261.46,0.02625
3238.32,0.02691
3215.17,0.02696
3192.03,0.02630
3168.88,0.02824
3145.74,0.02701
3122.59,0.02702
3099.45,0.02737
3076.3,0.02692
3053.16,0.02706
3030.02,0.02657
3006.87,0.02646
2983.73,0.02586
2960.58,0.02541
2937.44,0.02617
2914.29,0.02650
2891.15,0.02691
2868,0.02672
2844.86,0.02736
2821.71,0.02738
2798.57,0.02743
2775.42,0.02760
2752.28,0.02738
2729.14,0.02737
2705.99,0.02770
2682.85,0.02704
2659.7,0.02730
2636.56,0.02728
2613.41,0.02661
2590.27,0.02702
2567.12,0.02740
2543.98,0.02720
2520.83,0.02672
2497.69,0.02693
2474.55,0.02715
2451.4,0.02721
2428.26,0.02731
2405.11,0.02661
2381.97,0.02690
2358.82,0.02754
2335.68,0.02695
2312.53,0.02683
2289.39,0.02665
2266.24,0.02670
2243.1,0.02663
2219.95,0.02605
2196.81,0.02626
2173.67,0.02590
2150.52,0.02651
2127.38,0.02637
2104.23,0.02611
2081.09,0.02559
2057.94,0.02613
2034.8,0.02611
2011.65,0.02595
1988.51,0.02599
1965.36,0.02579
1942.22,0.02621
1919.07,0.02588
1895.93,0.02568
1872.79,0.02528
1849.64,0.02531
1826.5,0.02499
1803.35,0.02480
1780.21,0.02356
1757.06,0.02172
1733.92,0.02315
1710.77,0.02461
1687.63,0.02299
1664.48,0.02240
1641.34,0.02225
1618.19,0.02296
1595.05,0.02269
1571.91,0.02169
1548.76,0.02188
1525.62,0.02307
1502.47,0.02223
1479.33,0.02176
1456.18,0.02181
1433.04,0.02194
1409.89,0.02110
1386.75,0.02108
1363.6,0.02081
1340.46,0.02082
1317.31,0.01969
1294.17,0.02056
1271.03,0.02160
1247.88,0.02238
1224.74,0.02201
1201.59,0.02110
1178.45,0.02085
1155.3,0.01955
1132.16,0.02075
1109.01,0.02178
1085.87,0.02207
1062.72,0.02411
1039.58,0.02277
1016.43,0.02204
993.29,0.02518
970.145,0.02401
947,0.02391
923.856,0.02297
900.711,0.02192
877.567,0.02192
854.422,0.02249
831.277,0.02149
808.133,0.02109
784.988,0.02049
761.844,0.01981
738.699,0.01979
715.554,0.01958
692.41,0.01753
669.265,0.01973
646.12,0.01873
622.976,0.01846
599.831,0.01921