Folder: fsri_materials_database/01_Data/PEVA/FTIR/IS (part 18)

File: PEVA_0.26_IS_T_240809_R5.dpt
7497.2,0.01721
7474.05,0.04360
7450.91,0.03876
7427.76,0.03450
7404.62,0.04443
7381.47,0.03295
7358.33,0.02894
7335.18,0.03331
7312.04,0.03635
7288.89,0.04642
7265.75,0.03185
7242.6,0.03932
7219.45,0.02454
7196.31,0.02864
7173.16,0.02998
7150.02,0.03890
7126.87,0.02998
7103.73,0.03590
7080.58,0.04033
7057.44,0.03064
7034.29,0.03265
7011.15,0.02744
6988,0.02061
6964.85,0.04012
6941.71,0.03275
6918.56,0.02832
6895.42,0.03777
6872.27,0.03606
6849.13,0.03276
6825.98,0.03201
6802.84,0.03308
6779.69,0.02913
6756.55,0.03185
6733.4,0.03721
6710.25,0.02855
6687.11,0.03062
6663.96,0.03138
6640.82,0.03056
6617.67,0.02719
6594.53,0.03244
6571.38,0.03048
6548.24,0.03175
6525.09,0.03277
6501.95,0.03375
6478.8,0.02519
6455.65,0.03273
6432.51,0.02502
6409.36,0.02904
6386.22,0.03089
6363.07,0.03677
6339.93,0.03220
6316.78,0.03689
6293.64,0.02739
6270.49,0.03316
6247.34,0.03557
6224.2,0.03213
6201.05,0.02846
6177.91,0.02866
6154.76,0.03473
6131.62,0.02931
6108.47,0.03060
6085.33,0.03256
6062.18,0.03101
6039.04,0.03218
6015.89,0.03058
5992.74,0.02900
5969.6,0.03104
5946.45,0.03134
5923.31,0.03001
5900.16,0.02795
5877.02,0.03197
5853.87,0.02892
5830.73,0.02950
5807.58,0.02922
5784.44,0.03143
5761.29,0.03006
5738.14,0.03064
5715,0.03399
5691.85,0.03091
5668.71,0.03003
5645.56,0.03323
5622.42,0.03275
5599.27,0.02942
5576.13,0.03091
5552.98,0.03138
5529.84,0.03131
5506.69,0.02918
5483.54,0.02935
5460.4,0.02938
5437.25,0.02990
5414.11,0.03102
5390.96,0.03341
5367.82,0.03092
5344.67,0.03033
5321.53,0.03318
5298.38,0.03127
5275.24,0.03124
5252.09,0.03025
5228.94,0.03291
5205.8,0.02999
5182.65,0.03172
5159.51,0.03092
5136.36,0.02989
5113.22,0.02952
5090.07,0.03054
5066.93,0.03007
5043.78,0.03081
5020.64,0.03109
4997.49,0.03170
4974.34,0.03007
4951.2,0.03090
4928.05,0.02921
4904.91,0.03089
4881.76,0.03133
4858.62,0.03022
4835.47,0.03048
4812.33,0.03011
4789.18,0.03027
4766.04,0.03117
4742.89,0.02910
4719.74,0.02984
4696.6,0.03064
4673.45,0.03029
4650.31,0.03073
4627.16,0.03008
4604.02,0.03075
4580.87,0.03049
4557.73,0.03091
4534.58,0.03225
4511.44,0.03028
4488.29,0.03078
4465.14,0.03105
4442,0.03111
4418.85,0.03056
4395.71,0.03174
4372.56,0.03102
4349.42,0.03005
4326.27,0.03012
4303.13,0.03100
4279.98,0.02978
4256.84,0.03120
4233.69,0.03017
4210.54,0.03052
4187.4,0.03040
4164.25,0.03066
4141.11,0.03074
4117.96,0.03129
4094.82,0.03143
4071.67,0.03084
4048.53,0.02999
4025.38,0.03035
4002.24,0.03081
3979.09,0.03100
3955.94,0.03050
3932.8,0.03171
3909.65,0.03078
3886.51,0.03060
3863.36,0.03049
3840.22,0.03150
3817.07,0.03190
3793.93,0.03066
3770.78,0.03096
3747.64,0.03120
3724.49,0.03000
3701.34,0.02998
3678.2,0.03044
3655.05,0.02946
3631.91,0.02997
3608.76,0.02810
3585.62,0.02798
3562.47,0.02738
3539.33,0.02842
3516.18,0.02725
3493.04,0.02657
3469.89,0.02704
3446.74,0.02658
3423.6,0.02753
3400.45,0.02585
3377.31,0.02611
3354.16,0.02581
3331.02,0.02616
3307.87,0.02623
3284.73,0.02621
3261.58,0.02679
3238.44,0.02702
3215.29,0.02722
3192.14,0.02757
3169,0.02725
3145.85,0.02725
3122.71,0.02720
3099.56,0.02687
3076.42,0.02783
3053.27,0.02757
3030.13,0.02779
3006.98,0.02725
2983.84,0.02657
2960.69,0.02535
2937.54,0.02610
2914.4,0.02665
2891.25,0.02670
2868.11,0.02666
2844.96,0.02770
2821.82,0.02730
2798.67,0.02759
2775.53,0.02789
2752.38,0.02777
2729.24,0.02762
2706.09,0.02796
2682.94,0.02805
2659.8,0.02787
2636.65,0.02754
2613.51,0.02743
2590.36,0.02758
2567.22,0.02764
2544.07,0.02773
2520.93,0.02754
2497.78,0.02743
2474.64,0.02717
2451.49,0.02720
2428.34,0.02729
2405.2,0.02754
2382.05,0.02757
2358.91,0.02739
2335.76,0.02773
2312.62,0.02740
2289.47,0.02718
2266.33,0.02659
2243.18,0.02698
2220.04,0.02686
2196.89,0.02678
2173.74,0.02676
2150.6,0.02639
2127.45,0.02658
2104.31,0.02615
2081.16,0.02680
2058.02,0.02641
2034.87,0.02623
2011.73,0.02634
1988.58,0.02626
1965.44,0.02625
1942.29,0.02611
1919.14,0.02555
1896,0.02575
1872.85,0.02605
1849.71,0.02524
1826.56,0.02538
1803.42,0.02484
1780.27,0.02398
1757.13,0.02214
1733.98,0.02428
1710.84,0.02467
1687.69,0.02330
1664.54,0.02243
1641.4,0.02234
1618.25,0.02271
1595.11,0.02306
1571.96,0.02243
1548.82,0.02204
1525.67,0.02262
1502.53,0.02247
1479.38,0.02224
1456.24,0.02175
1433.09,0.02176
1409.94,0.02162
1386.8,0.02144
1363.65,0.02119
1340.51,0.02090
1317.36,0.02005
1294.22,0.02088
1271.07,0.02220
1247.93,0.02259
1224.78,0.02209
1201.64,0.02159
1178.49,0.02091
1155.34,0.02033
1132.2,0.02115
1109.05,0.02114
1085.91,0.02163
1062.76,0.02324
1039.62,0.02318
1016.47,0.02293
993.326,0.02447
970.18,0.02415
947.035,0.02319
923.89,0.02293
900.744,0.02271
877.599,0.02245
854.453,0.02208
831.308,0.02235
808.162,0.02172
785.017,0.02129
761.871,0.02116
738.726,0.02028
715.58,0.01964
692.435,0.01953
669.29,0.01967
646.144,0.01862
622.999,0.01945
599.853,0.01645

File: PEVA_0.26_IS_T_240809_R6.dpt
7497.2,0.04589
7474.05,0.03164
7450.91,0.02241
7427.76,0.03299
7404.62,0.03557
7381.47,0.03043
7358.33,0.03407
7335.18,0.03339
7312.04,0.02104
7288.89,0.03608
7265.75,0.03220
7242.6,0.03830
7219.45,0.03838
7196.31,0.03340
7173.16,0.03322
7150.02,0.03895
7126.87,0.03226
7103.73,0.03416
7080.58,0.03508
7057.44,0.02242
7034.29,0.03160
7011.15,0.02979
6988,0.02484
6964.85,0.03315
6941.71,0.03798
6918.56,0.03199
6895.42,0.03132
6872.27,0.02913
6849.13,0.03397
6825.98,0.03399
6802.84,0.03656
6779.69,0.03080
6756.55,0.03841
6733.4,0.03758
6710.25,0.03142
6687.11,0.02496
6663.96,0.03346
6640.82,0.03050
6617.67,0.03610
6594.53,0.02845
6571.38,0.03356
6548.24,0.02656
6525.09,0.03233
6501.95,0.02969
6478.8,0.03151
6455.65,0.02958
6432.51,0.03033
6409.36,0.03503
6386.22,0.03090
6363.07,0.02788
6339.93,0.02896
6316.78,0.03048
6293.64,0.03084
6270.49,0.03015
6247.34,0.02880
6224.2,0.03456
6201.05,0.02793
6177.91,0.03323
6154.76,0.03333
6131.62,0.02858
6108.47,0.02810
6085.33,0.03491
6062.18,0.03053
6039.04,0.03065
6015.89,0.02920
5992.74,0.03157
5969.6,0.02816
5946.45,0.03083
5923.31,0.02994
5900.16,0.03060
5877.02,0.03319
5853.87,0.03188
5830.73,0.03167
5807.58,0.02943
5784.44,0.03027
5761.29,0.02884
5738.14,0.02988
5715,0.03170
5691.85,0.02876
5668.71,0.03114
5645.56,0.02915
5622.42,0.02883
5599.27,0.03168
5576.13,0.02937
5552.98,0.02999
5529.84,0.03125
5506.69,0.02842
5483.54,0.03278
5460.4,0.02921
5437.25,0.03273
5414.11,0.03184
5390.96,0.02928
5367.82,0.03038
5344.67,0.03000
5321.53,0.03076
5298.38,0.02895
5275.24,0.03109
5252.09,0.03122
5228.94,0.03035
5205.8,0.03074
5182.65,0.03136
5159.51,0.03154
5136.36,0.03070
5113.22,0.02840
5090.07,0.02926
5066.93,0.03136
5043.78,0.03085
5020.64,0.03019
4997.49,0.03124
4974.34,0.03110
4951.2,0.02989
4928.05,0.03117
4904.91,0.03025
4881.76,0.03042
4858.62,0.03035
4835.47,0.03056
4812.33,0.02993
4789.18,0.03031
4766.04,0.03037
4742.89,0.03080
4719.74,0.02955
4696.6,0.03079
4673.45,0.03036
4650.31,0.03029
4627.16,0.03034
4604.02,0.03024
4580.87,0.03069
4557.73,0.03046
4534.58,0.03016
4511.44,0.03145
4488.29,0.02965
4465.14,0.03034
4442,0.03055
4418.85,0.02986
4395.71,0.03120
4372.56,0.03102
4349.42,0.03172
4326.27,0.03023
4303.13,0.03021
4279.98,0.03037
4256.84,0.03087
4233.69,0.03068
4210.54,0.03016
4187.4,0.03026
4164.25,0.03012
4141.11,0.03054
4117.96,0.03028
4094.82,0.03096
4071.67,0.02994
4048.53,0.03002
4025.38,0.03053
4002.24,0.03033
3979.09,0.03030
3955.94,0.02984
3932.8,0.02982
3909.65,0.02995
3886.51,0.03003
3863.36,0.03064
3840.22,0.03141
3817.07,0.03038
3793.93,0.02999
3770.78,0.03073
3747.64,0.03095
3724.49,0.02981
3701.34,0.02922
3678.2,0.02956
3655.05,0.02886
3631.91,0.02980
3608.76,0.02820
3585.62,0.02789
3562.47,0.02703
3539.33,0.02697
3516.18,0.02648
3493.04,0.02696
3469.89,0.02686
3446.74,0.02613
3423.6,0.02719
3400.45,0.02710
3377.31,0.02663
3354.16,0.02661
3331.02,0.02603
3307.87,0.02708
3284.73,0.02596
3261.58,0.02597
3238.44,0.02767
3215.29,0.02661
3192.14,0.02711
3169,0.02700
3145.85,0.02701
3122.71,0.02668
3099.56,0.02666
3076.42,0.02715
3053.27,0.02748
3030.13,0.02685
3006.98,0.02690
2983.84,0.02597
2960.69,0.02537
2937.54,0.02568
2914.4,0.02644
2891.25,0.02669
2868.11,0.02634
2844.96,0.02712
2821.82,0.02714
2798.67,0.02717
2775.53,0.02721
2752.38,0.02727
2729.24,0.02746
2706.09,0.02705
2682.94,0.02750
2659.8,0.02737
2636.65,0.02677
2613.51,0.02689
2590.36,0.02682
2567.22,0.02709
2544.07,0.02693
2520.93,0.02702
2497.78,0.02704
2474.64,0.02735
2451.49,0.02692
2428.34,0.02699
2405.2,0.02697
2382.05,0.02701
2358.91,0.02765
2335.76,0.02755
2312.62,0.02736
2289.47,0.02655
2266.33,0.02668
2243.18,0.02647
2220.04,0.02663
2196.89,0.02641
2173.74,0.02639
2150.6,0.02611
2127.45,0.02624
2104.31,0.02597
2081.16,0.02569
2058.02,0.02594
2034.87,0.02614
2011.73,0.02611
1988.58,0.02590
1965.44,0.02563
1942.29,0.02583
1919.14,0.02516
1896,0.02530
1872.85,0.02519
1849.71,0.02507
1826.56,0.02467
1803.42,0.02420
1780.27,0.02362
1757.13,0.02203
1733.98,0.02383
1710.84,0.02405
1687.69,0.02354
1664.54,0.02180
1641.4,0.02178
1618.25,0.02267
1595.11,0.02255
1571.96,0.02176
1548.82,0.02178
1525.67,0.02308
1502.53,0.02252
1479.38,0.02216
1456.24,0.02212
1433.09,0.02172
1409.94,0.02126
1386.8,0.02097
1363.65,0.02099
1340.51,0.02030
1317.36,0.01996
1294.22,0.02042
1271.07,0.02195
1247.93,0.02278
1224.78,0.02225
1201.64,0.02165
1178.49,0.02112
1155.34,0.02023
1132.2,0.02116
1109.05,0.02236
1085.91,0.02178
1062.76,0.02440
1039.62,0.02335
1016.47,0.02287
993.326,0.02465
970.18,0.02362
947.035,0.02344
923.89,0.02303
900.744,0.02264
877.599,0.02293
854.453,0.02154
831.308,0.02229
808.162,0.02143
785.017,0.02103
761.871,0.02013
738.726,0.02048
715.58,0.01913
692.435,0.01931
669.29,0.01864
646.144,0.01782
622.999,0.01892
599.853,0.01505

File: PEVA_0.26_IS_T_240809_R7.dpt
7497.2,0.04184
7474.05,0.03653
7450.91,0.03483
7427.76,0.03502
7404.62,0.02860
7381.47,0.03600
7358.33,0.03164
7335.18,0.03596
7312.04,0.04591
7288.89,0.03031
7265.75,0.03285
7242.6,0.03530
7219.45,0.02743
7196.31,0.03711
7173.16,0.03952
7150.02,0.04123
7126.87,0.03813
7103.73,0.03406
7080.58,0.03179
7057.44,0.03143
7034.29,0.03001
7011.15,0.02784
6988,0.03006
6964.85,0.03086
6941.71,0.03726
6918.56,0.03139
6895.42,0.03355
6872.27,0.03283
6849.13,0.03291
6825.98,0.03149
6802.84,0.03659
6779.69,0.03853
6756.55,0.03185
6733.4,0.03571
6710.25,0.03376
6687.11,0.03253
6663.96,0.03284
6640.82,0.02504
6617.67,0.03474
6594.53,0.03066
6571.38,0.03254
6548.24,0.03349
6525.09,0.03000
6501.95,0.03162
6478.8,0.03002
6455.65,0.03296
6432.51,0.03399
6409.36,0.02707
6386.22,0.02733
6363.07,0.03282
6339.93,0.03109
6316.78,0.03281
6293.64,0.03091
6270.49,0.03257
6247.34,0.03526
6224.2,0.03138
6201.05,0.03265
6177.91,0.03392
6154.76,0.02433
6131.62,0.02873
6108.47,0.02960
6085.33,0.03149
6062.18,0.02822
6039.04,0.03069
6015.89,0.03015
5992.74,0.03283
5969.6,0.03074
5946.45,0.02967
5923.31,0.03246
5900.16,0.03303
5877.02,0.02842
5853.87,0.02775
5830.73,0.03190
5807.58,0.03093
5784.44,0.03036
5761.29,0.03101
5738.14,0.03026
5715,0.02968
5691.85,0.03108
5668.71,0.03221
5645.56,0.03231
5622.42,0.03113
5599.27,0.03065
5576.13,0.02954
5552.98,0.02930
5529.84,0.02997
5506.69,0.03086
5483.54,0.03083
5460.4,0.02968
5437.25,0.03290
5414.11,0.03031
5390.96,0.03262
5367.82,0.03231
5344.67,0.02865
5321.53,0.02963
5298.38,0.03077
5275.24,0.02876
5252.09,0.03132
5228.94,0.03054
5205.8,0.03114
5182.65,0.03243
5159.51,0.03062
5136.36,0.03035
5113.22,0.03152
5090.07,0.03232
5066.93,0.03048
5043.78,0.03118
5020.64,0.03027
4997.49,0.02975
4974.34,0.03105
4951.2,0.03047
4928.05,0.02968
4904.91,0.02994
4881.76,0.03091
4858.62,0.03039
4835.47,0.03162
4812.33,0.03128
4789.18,0.03120
4766.04,0.03094
4742.89,0.03079
4719.74,0.03031
4696.6,0.03100
4673.45,0.03035
4650.31,0.03121
4627.16,0.03054
4604.02,0.03128
4580.87,0.03076
4557.73,0.03114
4534.58,0.03060
4511.44,0.03077
4488.29,0.03115
4465.14,0.03172
4442,0.03138
4418.85,0.03121
4395.71,0.03091
4372.56,0.03104
4349.42,0.03002
4326.27,0.03130
4303.13,0.03008
4279.98,0.03096
4256.84,0.03049
4233.69,0.03069
4210.54,0.03097
4187.4,0.03096
4164.25,0.03072
4141.11,0.03027
4117.96,0.03104
4094.82,0.03031
4071.67,0.02986
4048.53,0.03111
4025.38,0.03086
4002.24,0.03025
3979.09,0.03037
3955.94,0.02958
3932.8,0.03049
3909.65,0.03020
3886.51,0.03002
3863.36,0.03029
3840.22,0.03054
3817.07,0.03010
3793.93,0.02970
3770.78,0.03050
3747.64,0.03057
3724.49,0.03019
3701.34,0.03010
3678.2,0.03002
3655.05,0.02878
3631.91,0.02809
3608.76,0.02911
3585.62,0.02864
3562.47,0.02763
3539.33,0.02731
3516.18,0.02654
3493.04,0.02648
3469.89,0.02635
3446.74,0.02689
3423.6,0.02662
3400.45,0.02615
3377.31,0.02644
3354.16,0.02603
3331.02,0.02660
3307.87,0.02629
3284.73,0.02691
3261.58,0.02667
3238.44,0.02643
3215.29,0.02685
3192.14,0.02810
3169,0.02696
3145.85,0.02731
3122.71,0.02772
3099.56,0.02753
3076.42,0.02682
3053.27,0.02690
3030.13,0.02727
3006.98,0.02686
2983.84,0.02649
2960.69,0.02590
2937.54,0.02617
2914.4,0.02666
2891.25,0.02677
2868.11,0.02696
2844.96,0.02754
2821.82,0.02783
2798.67,0.02737
2775.53,0.02720
2752.38,0.02737
2729.24,0.02795
2706.09,0.02735
2682.94,0.02780
2659.8,0.02783
2636.65,0.02738
2613.51,0.02779
2590.36,0.02759
2567.22,0.02765
2544.07,0.02753
2520.93,0.02742
2497.78,0.02745
2474.64,0.02720
2451.49,0.02742
2428.34,0.02702
2405.2,0.02717
2382.05,0.02753
2358.91,0.02750
2335.76,0.02771
2312.62,0.02706
2289.47,0.02690
2266.33,0.02686
2243.18,0.02646
2220.04,0.02651
2196.89,0.02655
2173.74,0.02661
2150.6,0.02614
2127.45,0.02691
2104.31,0.02614
2081.16,0.02637
2058.02,0.02648
2034.87,0.02639
2011.73,0.02623
1988.58,0.02579
1965.44,0.02595
1942.29,0.02570
1919.14,0.02584
1896,0.02562
1872.85,0.02568
1849.71,0.02531
1826.56,0.02464
1803.42,0.02440
1780.27,0.02318
1757.13,0.02192
1733.98,0.02405
1710.84,0.02421
1687.69,0.02274
1664.54,0.02202
1641.4,0.02195
1618.25,0.02259
1595.11,0.02249
1571.96,0.02185
1548.82,0.02213
1525.67,0.02242
1502.53,0.02197
1479.38,0.02214
1456.24,0.02136
1433.09,0.02211
1409.94,0.02123
1386.8,0.02081
1363.65,0.02129
1340.51,0.02095
1317.36,0.01993
1294.22,0.02060
1271.07,0.02210
1247.93,0.02323
1224.78,0.02241
1201.64,0.02159
1178.49,0.02076
1155.34,0.02044
1132.2,0.02086
1109.05,0.02244
1085.91,0.02241
1062.76,0.02472
1039.62,0.02330
1016.47,0.02295
993.326,0.02412
970.18,0.02361
947.035,0.02280
923.89,0.02298
900.744,0.02287
877.599,0.02261
854.453,0.02224
831.308,0.02244
808.162,0.02178
785.017,0.02037
761.871,0.01975
738.726,0.02031
715.58,0.02093
692.435,0.02026
669.29,0.01923
646.144,0.01914
622.999,0.01905
599.853,0.02162

File: PEVA_0.26_IS_T_240809_R8.dpt
7497.2,0.04380
7474.05,0.02129
7450.91,0.02695
7427.76,0.04251
7404.62,0.04548
7381.47,0.02925
7358.33,0.03792
7335.18,0.04145
7312.04,0.03038
7288.89,0.03459
7265.75,0.04408
7242.6,0.02283
7219.45,0.03260
7196.31,0.03000
7173.16,0.04573
7150.02,0.03621
7126.87,0.02951
7103.73,0.03042
7080.58,0.03574
7057.44,0.03601
7034.29,0.02708
7011.15,0.03612
6988,0.02795
6964.85,0.04357
6941.71,0.03375
6918.56,0.03301
6895.42,0.03748
6872.27,0.02583
6849.13,0.03102
6825.98,0.03357
6802.84,0.02473
6779.69,0.03604
6756.55,0.03434
6733.4,0.03495
6710.25,0.03728
6687.11,0.03104
6663.96,0.03354
6640.82,0.03799
6617.67,0.03196
6594.53,0.03490
6571.38,0.03251
6548.24,0.03011
6525.09,0.03526
6501.95,0.03497
6478.8,0.02923
6455.65,0.03246
6432.51,0.03294
6409.36,0.03882
6386.22,0.02954
6363.07,0.03125
6339.93,0.03041
6316.78,0.03451
6293.64,0.02982
6270.49,0.02954
6247.34,0.03031
6224.2,0.02938
6201.05,0.02844
6177.91,0.03384
6154.76,0.02910
6131.62,0.02993
6108.47,0.03432
6085.33,0.02847
6062.18,0.02961
6039.04,0.02827
6015.89,0.03076
5992.74,0.03249
5969.6,0.03089
5946.45,0.03101
5923.31,0.03026
5900.16,0.03217
5877.02,0.03195
5853.87,0.03139
5830.73,0.02998
5807.58,0.02884
5784.44,0.03028
5761.29,0.03288
5738.14,0.03235
5715,0.03006
5691.85,0.02974
5668.71,0.03267
5645.56,0.02976
5622.42,0.02880
5599.27,0.03119
5576.13,0.02985
5552.98,0.03161
5529.84,0.03010
5506.69,0.02888
5483.54,0.03036
5460.4,0.03010
5437.25,0.03075
5414.11,0.03003
5390.96,0.02987
5367.82,0.02997
5344.67,0.03288
5321.53,0.02990
5298.38,0.03067
5275.24,0.02980
5252.09,0.03071
5228.94,0.03077
5205.8,0.03056
5182.65,0.02908
5159.51,0.02967
5136.36,0.03003
5113.22,0.03082
5090.07,0.02946
5066.93,0.03082
5043.78,0.03146
5020.64,0.03130
4997.49,0.02948
4974.34,0.03112
4951.2,0.02981
4928.05,0.02973
4904.91,0.03008
4881.76,0.03069
4858.62,0.03193
4835.47,0.03039
4812.33,0.03051
4789.18,0.02983
4766.04,0.03059
4742.89,0.02945
4719.74,0.03073
4696.6,0.03047
4673.45,0.03070
4650.31,0.03051
4627.16,0.03120
4604.02,0.03162
4580.87,0.03088
4557.73,0.02992
4534.58,0.03124
4511.44,0.03022
4488.29,0.03062
4465.14,0.03022
4442,0.02989
4418.85,0.03007
4395.71,0.03002
4372.56,0.03013
4349.42,0.02938
4326.27,0.03023
4303.13,0.03066
4279.98,0.02985
4256.84,0.03016
4233.69,0.03056
4210.54,0.03016
4187.4,0.03060
4164.25,0.03023
4141.11,0.03026
4117.96,0.03020
4094.82,0.03036
4071.67,0.03043
4048.53,0.03045
4025.38,0.02952
4002.24,0.03033
3979.09,0.03000
3955.94,0.02966
3932.8,0.02987
3909.65,0.03043
3886.51,0.03033
3863.36,0.02966
3840.22,0.03022
3817.07,0.02972
3793.93,0.02990
3770.78,0.02976
3747.64,0.02981
3724.49,0.02913
3701.34,0.02898
3678.2,0.02921
3655.05,0.02868
3631.91,0.02834
3608.76,0.02802
3585.62,0.02811
3562.47,0.02709
3539.33,0.02711
3516.18,0.02718
3493.04,0.02704
3469.89,0.02638
3446.74,0.02620
3423.6,0.02594
3400.45,0.02666
3377.31,0.02612
3354.16,0.02574
3331.02,0.02645
3307.87,0.02619
3284.73,0.02555
3261.58,0.02637
3238.44,0.02642
3215.29,0.02641
3192.14,0.02763
3169,0.02646
3145.85,0.02718
3122.71,0.02716
3099.56,0.02703
3076.42,0.02639
3053.27,0.02695
3030.13,0.02707
3006.98,0.02663
2983.84,0.02665
2960.69,0.02581
2937.54,0.02490
2914.4,0.02672
2891.25,0.02662
2868.11,0.02636
2844.96,0.02693
2821.82,0.02762
2798.67,0.02709
2775.53,0.02755
2752.38,0.02701
2729.24,0.02724
2706.09,0.02689
2682.94,0.02715
2659.8,0.02725
2636.65,0.02732
2613.51,0.02767
2590.36,0.02700
2567.22,0.02701
2544.07,0.02702
2520.93,0.02695
2497.78,0.02663
2474.64,0.02743
2451.49,0.02704
2428.34,0.02704
2405.2,0.02699
2382.05,0.02694
2358.91,0.02748
2335.76,0.02796
2312.62,0.02647
2289.47,0.02637
2266.33,0.02701
2243.18,0.02640
2220.04,0.02634
2196.89,0.02634
2173.74,0.02622
2150.6,0.02593
2127.45,0.02637
2104.31,0.02600
2081.16,0.02606
2058.02,0.02609
2034.87,0.02597
2011.73,0.02555
1988.58,0.02583
1965.44,0.02569
1942.29,0.02540
1919.14,0.02507
1896,0.02492
1872.85,0.02487
1849.71,0.02505
1826.56,0.02436
1803.42,0.02419
1780.27,0.02334
1757.13,0.02144
1733.98,0.02300
1710.84,0.02402
1687.69,0.02224
1664.54,0.02209
1641.4,0.02226
1618.25,0.02211
1595.11,0.02244
1571.96,0.02173
1548.82,0.02174
1525.67,0.02167
1502.53,0.02192
1479.38,0.02183
1456.24,0.02147
1433.09,0.02123
1409.94,0.02105
1386.8,0.02109
1363.65,0.02091
1340.51,0.02068
1317.36,0.01936
1294.22,0.02061
1271.07,0.02210
1247.93,0.02256
1224.78,0.02164
1201.64,0.02122
1178.49,0.02024
1155.34,0.01968
1132.2,0.02045
1109.05,0.02261
1085.91,0.02177
1062.76,0.02421
1039.62,0.02304
1016.47,0.02313
993.326,0.02429
970.18,0.02364
947.035,0.02251
923.89,0.02286
900.744,0.02188
877.599,0.02267
854.453,0.02171
831.308,0.02120
808.162,0.02094
785.017,0.02110
761.871,0.02015
738.726,0.01987
715.58,0.01924
692.435,0.01934
669.29,0.01900
646.144,0.01707
622.999,0.01778
599.853,0.01913

File: PEVA_0.26_IS_T_240809_R9.dpt
7497.2,0.03240
7474.05,0.03552
7450.91,0.03288
7427.76,0.02292
7404.62,0.03689
7381.47,0.03936
7358.33,0.02522
7335.18,0.02927
7312.04,0.02756
7288.89,0.03310
7265.75,0.04655
7242.6,0.03074
7219.45,0.02857
7196.31,0.02863
7173.16,0.03387
7150.02,0.02694
7126.87,0.03644
7103.73,0.03187
7080.58,0.03691
7057.44,0.03271
7034.29,0.03315
7011.15,0.04264
6988,0.03257
6964.85,0.03234
6941.71,0.03174
6918.56,0.03105
6895.42,0.03931
6872.27,0.03528
6849.13,0.03109
6825.98,0.03810
6802.84,0.03523
6779.69,0.02932
6756.55,0.02933
6733.4,0.03183
6710.25,0.03544
6687.11,0.03864
6663.96,0.03611
6640.82,0.03354
6617.67,0.03157
6594.53,0.02999
6571.38,0.03301
6548.24,0.02956
6525.09,0.02952
6501.95,0.03008
6478.8,0.03452
6455.65,0.02450
6432.51,0.03486
6409.36,0.03740
6386.22,0.03057
6363.07,0.03161
6339.93,0.03131
6316.78,0.02873
6293.64,0.03121
6270.49,0.03134
6247.34,0.03390
6224.2,0.03185
6201.05,0.03306
6177.91,0.02888
6154.76,0.02921
6131.62,0.03189
6108.47,0.02846
6085.33,0.03043
6062.18,0.03051
6039.04,0.03198
6015.89,0.03002
5992.74,0.02844
5969.6,0.02924
5946.45,0.03128
5923.31,0.03145
5900.16,0.03217
5877.02,0.03002
5853.87,0.02948
5830.73,0.03123
5807.58,0.03247
5784.44,0.03028
5761.29,0.02856
5738.14,0.03036
5715,0.03024
5691.85,0.02922
5668.71,0.03140
5645.56,0.03022
5622.42,0.03117
5599.27,0.03259
5576.13,0.03063
5552.98,0.03066
5529.84,0.02935
5506.69,0.03148
5483.54,0.03154
5460.4,0.02992
5437.25,0.02840
5414.11,0.02914
5390.96,0.02905
5367.82,0.03003
5344.67,0.03245
5321.53,0.03156
5298.38,0.03070
5275.24,0.03105
5252.09,0.03060
5228.94,0.03216
5205.8,0.03113
5182.65,0.03210
5159.51,0.03051
5136.36,0.03075
5113.22,0.03043
5090.07,0.02976
5066.93,0.02974
5043.78,0.03198
5020.64,0.02969
4997.49,0.03066
4974.34,0.02979
4951.2,0.02933
4928.05,0.03103
4904.91,0.02979
4881.76,0.03052
4858.62,0.02940
4835.47,0.03010
4812.33,0.03042
4789.18,0.03037
4766.04,0.02996
4742.89,0.03029
4719.74,0.02990
4696.6,0.03020
4673.45,0.03076
4650.31,0.03056
4627.16,0.02947
4604.02,0.03026
4580.87,0.03078
4557.73,0.03018
4534.58,0.02949
4511.44,0.03109
4488.29,0.02951
4465.14,0.02963
4442,0.03043
4418.85,0.02939
4395.71,0.03022
4372.56,0.02997
4349.42,0.02997
4326.27,0.02997
4303.13,0.03025
4279.98,0.02988
4256.84,0.03039
4233.69,0.02981
4210.54,0.03031
4187.4,0.03015
4164.25,0.02936
4141.11,0.03055
4117.96,0.02979
4094.82,0.03019
4071.67,0.02983
4048.53,0.02989
4025.38,0.02928
4002.24,0.03014
3979.09,0.02952
3955.94,0.02989
3932.8,0.02971
3909.65,0.03026
3886.51,0.03042
3863.36,0.03043
3840.22,0.03058
3817.07,0.03043
3793.93,0.02998
3770.78,0.02965
3747.64,0.03005
3724.49,0.03005
3701.34,0.02933
3678.2,0.02833
3655.05,0.02899
3631.91,0.02844
3608.76,0.02747
3585.62,0.02743
3562.47,0.02662
3539.33,0.02678
3516.18,0.02611
3493.04,0.02661
3469.89,0.02708
3446.74,0.02634
3423.6,0.02714
3400.45,0.02609
3377.31,0.02555
3354.16,0.02599
3331.02,0.02654
3307.87,0.02619
3284.73,0.02631
3261.58,0.02691
3238.44,0.02581
3215.29,0.02668
3192.14,0.02635
3169,0.02650
3145.85,0.02616
3122.71,0.02621
3099.56,0.02689
3076.42,0.02623
3053.27,0.02672
3030.13,0.02738
3006.98,0.02615
2983.84,0.02560
2960.69,0.02581
2937.54,0.02575
2914.4,0.02577
2891.25,0.02586
2868.11,0.02595
2844.96,0.02677
2821.82,0.02734
2798.67,0.02714
2775.53,0.02736
2752.38,0.02764
2729.24,0.02726
2706.09,0.02696
2682.94,0.02751
2659.8,0.02718
2636.65,0.02692
2613.51,0.02738
2590.36,0.02718
2567.22,0.02711
2544.07,0.02699
2520.93,0.02667
2497.78,0.02718
2474.64,0.02700
2451.49,0.02680
2428.34,0.02656
2405.2,0.02664
2382.05,0.02676
2358.91,0.02743
2335.76,0.02733
2312.62,0.02645
2289.47,0.02635
2266.33,0.02625
2243.18,0.02629
2220.04,0.02631
2196.89,0.02610
2173.74,0.02604
2150.6,0.02593
2127.45,0.02586
2104.31,0.02574
2081.16,0.02616
2058.02,0.02543
2034.87,0.02532
2011.73,0.02547
1988.58,0.02570
1965.44,0.02552
1942.29,0.02535
1919.14,0.02517
1896,0.02520
1872.85,0.02492
1849.71,0.02480
1826.56,0.02438
1803.42,0.02401
1780.27,0.02319
1757.13,0.02199
1733.98,0.02377
1710.84,0.02409
1687.69,0.02250
1664.54,0.02173
1641.4,0.02208
1618.25,0.02203
1595.11,0.02222
1571.96,0.02184
1548.82,0.02144
1525.67,0.02193
1502.53,0.02171
1479.38,0.02158
1456.24,0.02192
1433.09,0.02174
1409.94,0.02118
1386.8,0.02090
1363.65,0.02092
1340.51,0.02045
1317.36,0.01930
1294.22,0.02043
1271.07,0.02164
1247.93,0.02301
1224.78,0.02170
1201.64,0.02113
1178.49,0.02051
1155.34,0.01992
1132.2,0.01996
1109.05,0.02195
1085.91,0.02173
1062.76,0.02401
1039.62,0.02313
1016.47,0.02288
993.326,0.02407
970.18,0.02442
947.035,0.02308
923.89,0.02241
900.744,0.02313
877.599,0.02258
854.453,0.02240
831.308,0.02176
808.162,0.02148
785.017,0.02097
761.871,0.02060
738.726,0.02026
715.58,0.01921
692.435,0.01965
669.29,0.01897
646.144,0.01884
622.999,0.01954
599.853,0.01756