Folder: fsri_materials_database/01_Data/PEVA/FTIR/IS (part 9)

File: PEVA_0.18_IS_S_240809_R7.dpt
7497.33,0.11187
7474.19,0.11212
7451.04,0.10040
7427.9,0.10192
7404.75,0.09878
7381.6,0.09624
7358.46,0.10981
7335.31,0.09960
7312.17,0.10435
7289.02,0.10049
7265.87,0.10182
7242.73,0.08556
7219.58,0.08545
7196.44,0.10101
7173.29,0.09676
7150.15,0.09151
7127,0.09778
7103.85,0.09907
7080.71,0.10054
7057.56,0.10065
7034.42,0.10359
7011.27,0.10010
6988.12,0.10311
6964.98,0.10473
6941.83,0.09724
6918.69,0.10362
6895.54,0.10495
6872.39,0.10079
6849.25,0.09497
6826.1,0.10218
6802.96,0.09933
6779.81,0.10598
6756.67,0.10323
6733.52,0.09682
6710.37,0.10798
6687.23,0.10065
6664.08,0.09732
6640.94,0.10395
6617.79,0.10139
6594.64,0.10234
6571.5,0.10303
6548.35,0.10184
6525.21,0.10277
6502.06,0.10032
6478.92,0.10270
6455.77,0.10623
6432.62,0.09665
6409.48,0.10055
6386.33,0.10420
6363.19,0.10235
6340.04,0.10170
6316.89,0.09862
6293.75,0.10152
6270.6,0.09950
6247.46,0.10553
6224.31,0.10069
6201.16,0.10391
6178.02,0.09510
6154.87,0.10516
6131.73,0.10167
6108.58,0.09969
6085.44,0.10322
6062.29,0.09690
6039.14,0.09875
6016,0.10023
5992.85,0.10172
5969.71,0.10055
5946.56,0.10099
5923.41,0.09891
5900.27,0.10009
5877.12,0.09743
5853.98,0.09524
5830.83,0.09402
5807.68,0.08826
5784.54,0.08300
5761.39,0.08852
5738.25,0.09481
5715.1,0.09627
5691.96,0.09280
5668.81,0.09214
5645.66,0.09654
5622.52,0.09727
5599.37,0.09734
5576.23,0.09303
5553.08,0.09570
5529.93,0.09653
5506.79,0.09727
5483.64,0.09775
5460.5,0.09730
5437.35,0.09851
5414.21,0.09943
5391.06,0.09814
5367.91,0.09900
5344.77,0.09868
5321.62,0.09785
5298.48,0.10087
5275.33,0.10110
5252.18,0.09990
5229.04,0.10256
5205.89,0.10099
5182.75,0.10054
5159.6,0.10027
5136.45,0.10092
5113.31,0.10064
5090.16,0.10109
5067.02,0.10166
5043.87,0.10120
5020.73,0.10091
4997.58,0.10033
4974.43,0.10087
4951.29,0.10090
4928.14,0.10145
4905,0.10224
4881.85,0.10125
4858.7,0.10068
4835.56,0.10138
4812.41,0.10257
4789.27,0.10252
4766.12,0.10267
4742.97,0.10201
4719.83,0.10217
4696.68,0.10106
4673.54,0.10165
4650.39,0.10083
4627.25,0.10171
4604.1,0.10193
4580.95,0.10095
4557.81,0.10188
4534.66,0.10159
4511.52,0.10259
4488.37,0.10077
4465.22,0.09984
4442.08,0.09610
4418.93,0.09318
4395.79,0.08768
4372.64,0.08288
4349.49,0.07298
4326.35,0.06373
4303.2,0.07891
4280.06,0.07675
4256.91,0.06827
4233.77,0.07476
4210.62,0.07298
4187.47,0.07132
4164.33,0.07210
4141.18,0.07192
4118.04,0.07434
4094.89,0.07456
4071.74,0.07846
4048.6,0.08104
4025.45,0.08079
4002.31,0.08446
3979.16,0.08376
3956.02,0.08543
3932.87,0.08479
3909.72,0.08478
3886.58,0.08606
3863.43,0.08687
3840.29,0.08805
3817.14,0.08948
3793.99,0.09106
3770.85,0.09147
3747.7,0.09054
3724.56,0.09099
3701.41,0.08927
3678.26,0.08825
3655.12,0.08486
3631.97,0.08616
3608.83,0.08275
3585.68,0.09050
3562.54,0.09304
3539.39,0.09352
3516.24,0.09341
3493.1,0.09235
3469.95,0.08539
3446.81,0.08301
3423.66,0.09012
3400.51,0.09083
3377.37,0.09038
3354.22,0.08976
3331.08,0.09085
3307.93,0.09026
3284.78,0.09061
3261.64,0.09007
3238.49,0.08938
3215.35,0.08916
3192.2,0.08716
3169.06,0.08586
3145.91,0.08443
3122.76,0.07976
3099.62,0.07311
3076.47,0.06576
3053.33,0.06067
3030.18,0.05707
3007.03,0.05533
2983.89,0.05166
2960.74,0.04875
2937.6,0.04028
2914.45,0.08909
2891.31,0.06930
2868.16,0.06035
2845.01,0.08488
2821.87,0.06786
2798.72,0.06665
2775.58,0.06946
2752.43,0.06994
2729.28,0.06951
2706.14,0.06995
2682.99,0.06790
2659.85,0.06740
2636.7,0.06746
2613.55,0.07128
2590.41,0.07547
2567.26,0.08100
2544.12,0.08418
2520.97,0.08600
2497.83,0.08846
2474.68,0.08795
2451.53,0.09242
2428.39,0.09357
2405.24,0.09181
2382.1,0.09122
2358.95,0.08791
2335.8,0.08281
2312.66,0.08338
2289.51,0.08555
2266.37,0.08699
2243.22,0.09006
2220.07,0.09458
2196.93,0.09455
2173.78,0.09365
2150.64,0.09298
2127.49,0.09533
2104.35,0.09367
2081.2,0.09158
2058.05,0.08899
2034.91,0.08649
2011.76,0.08742
1988.62,0.09357
1965.47,0.09338
1942.32,0.09199
1919.18,0.08935
1896.03,0.08539
1872.89,0.08629
1849.74,0.08773
1826.6,0.08373
1803.45,0.07724
1780.3,0.07111
1757.16,0.06160
1734.01,0.05091
1710.87,0.05944
1687.72,0.06400
1664.57,0.07275
1641.43,0.07186
1618.28,0.07785
1595.14,0.07970
1571.99,0.07952
1548.84,0.07712
1525.7,0.07436
1502.55,0.07011
1479.41,0.05619
1456.26,0.06488
1433.12,0.06195
1409.97,0.06364
1386.82,0.05629
1363.68,0.05613
1340.53,0.05915
1317.39,0.05770
1294.24,0.05525
1271.09,0.05622
1247.95,0.07358
1224.8,0.06239
1201.66,0.05901
1178.51,0.06071
1155.36,0.06037
1132.22,0.06017
1109.07,0.06158
1085.93,0.06002
1062.78,0.05964
1039.64,0.05843
1016.49,0.06271
993.344,0.06345
970.198,0.06053
947.052,0.06161
923.906,0.06759
900.76,0.07671
877.614,0.07659
854.468,0.07297
831.323,0.07062
808.177,0.06973
785.031,0.07856
761.885,0.08324
738.739,0.05949
715.593,0.06297
692.447,0.10039
669.301,0.09355
646.156,0.06226
623.01,0.05689
599.864,0.05236

File: PEVA_0.18_IS_S_240809_R8.dpt
7497.33,0.09519
7474.19,0.09608
7451.04,0.09688
7427.9,0.10230
7404.75,0.09642
7381.6,0.10341
7358.46,0.08868
7335.31,0.10854
7312.17,0.09873
7289.02,0.10886
7265.87,0.09371
7242.73,0.09665
7219.58,0.09749
7196.44,0.09111
7173.29,0.10534
7150.15,0.10610
7127,0.09149
7103.85,0.09845
7080.71,0.09833
7057.56,0.10505
7034.42,0.09795
7011.27,0.10026
6988.12,0.09398
6964.98,0.09394
6941.83,0.10230
6918.69,0.09996
6895.54,0.09292
6872.39,0.09774
6849.25,0.10352
6826.1,0.10194
6802.96,0.09814
6779.81,0.09413
6756.67,0.10011
6733.52,0.09661
6710.37,0.10013
6687.23,0.09602
6664.08,0.10426
6640.94,0.10401
6617.79,0.10254
6594.64,0.10000
6571.5,0.10223
6548.35,0.09890
6525.21,0.09659
6502.06,0.09952
6478.92,0.10233
6455.77,0.10225
6432.62,0.10265
6409.48,0.10664
6386.33,0.10129
6363.19,0.10432
6340.04,0.09956
6316.89,0.09963
6293.75,0.10024
6270.6,0.10084
6247.46,0.09877
6224.31,0.10073
6201.16,0.10203
6178.02,0.09959
6154.87,0.10277
6131.73,0.09924
6108.58,0.09898
6085.44,0.10379
6062.29,0.09475
6039.14,0.10004
6016,0.10292
5992.85,0.09603
5969.71,0.09615
5946.56,0.09697
5923.41,0.09977
5900.27,0.09828
5877.12,0.09758
5853.98,0.09260
5830.83,0.09119
5807.68,0.08823
5784.54,0.08259
5761.39,0.08623
5738.25,0.09507
5715.1,0.09160
5691.96,0.09343
5668.81,0.09161
5645.66,0.09366
5622.52,0.09412
5599.37,0.09576
5576.23,0.09707
5553.08,0.09455
5529.93,0.09576
5506.79,0.09472
5483.64,0.09539
5460.5,0.09718
5437.35,0.09632
5414.21,0.09912
5391.06,0.09956
5367.91,0.09860
5344.77,0.10035
5321.62,0.09774
5298.48,0.09859
5275.33,0.10028
5252.18,0.09900
5229.04,0.10002
5205.89,0.09921
5182.75,0.09866
5159.6,0.09937
5136.45,0.09995
5113.31,0.09967
5090.16,0.09982
5067.02,0.09987
5043.87,0.10007
5020.73,0.09872
4997.58,0.09826
4974.43,0.09986
4951.29,0.09953
4928.14,0.10082
4905,0.10008
4881.85,0.09990
4858.7,0.10037
4835.56,0.10075
4812.41,0.10051
4789.27,0.10068
4766.12,0.10019
4742.97,0.10086
4719.83,0.10132
4696.68,0.09971
4673.54,0.09810
4650.39,0.10054
4627.25,0.10008
4604.1,0.10068
4580.95,0.09985
4557.81,0.10050
4534.66,0.10059
4511.52,0.10026
4488.37,0.09909
4465.22,0.09793
4442.08,0.09332
4418.93,0.09173
4395.79,0.08755
4372.64,0.08070
4349.49,0.07227
4326.35,0.06346
4303.2,0.07701
4280.06,0.07588
4256.91,0.06638
4233.77,0.07410
4210.62,0.07227
4187.47,0.06992
4164.33,0.07064
4141.18,0.07154
4118.04,0.07307
4094.89,0.07275
4071.74,0.07687
4048.6,0.07883
4025.45,0.07936
4002.31,0.08261
3979.16,0.08220
3956.02,0.08369
3932.87,0.08444
3909.72,0.08371
3886.58,0.08453
3863.43,0.08703
3840.29,0.08723
3817.14,0.08749
3793.99,0.08974
3770.85,0.08987
3747.7,0.08779
3724.56,0.08851
3701.41,0.08682
3678.26,0.08681
3655.12,0.08352
3631.97,0.08433
3608.83,0.08037
3585.68,0.08930
3562.54,0.09126
3539.39,0.09182
3516.24,0.09210
3493.1,0.09008
3469.95,0.08346
3446.81,0.08151
3423.66,0.08771
3400.51,0.08871
3377.37,0.08824
3354.22,0.08769
3331.08,0.08900
3307.93,0.08912
3284.78,0.08813
3261.64,0.08903
3238.49,0.08840
3215.35,0.08755
3192.2,0.08621
3169.06,0.08505
3145.91,0.08249
3122.76,0.07846
3099.62,0.07169
3076.47,0.06372
3053.33,0.05954
3030.18,0.05554
3007.03,0.05418
2983.89,0.05171
2960.74,0.04713
2937.6,0.03960
2914.45,0.08768
2891.31,0.06820
2868.16,0.05896
2845.01,0.08325
2821.87,0.06673
2798.72,0.06595
2775.58,0.06825
2752.43,0.06875
2729.28,0.06788
2706.14,0.06814
2682.99,0.06624
2659.85,0.06577
2636.7,0.06631
2613.55,0.06981
2590.41,0.07414
2567.26,0.07917
2544.12,0.08248
2520.97,0.08464
2497.83,0.08675
2474.68,0.08716
2451.53,0.09146
2428.39,0.09163
2405.24,0.08981
2382.1,0.08903
2358.95,0.08582
2335.8,0.08099
2312.66,0.08126
2289.51,0.08383
2266.37,0.08653
2243.22,0.08913
2220.07,0.09300
2196.93,0.09319
2173.78,0.09155
2150.64,0.09075
2127.49,0.09340
2104.35,0.09253
2081.2,0.08997
2058.05,0.08750
2034.91,0.08429
2011.76,0.08479
1988.62,0.09093
1965.47,0.09078
1942.32,0.09010
1919.18,0.08883
1896.03,0.08496
1872.89,0.08509
1849.74,0.08556
1826.6,0.08161
1803.45,0.07594
1780.3,0.06967
1757.16,0.05948
1734.01,0.05034
1710.87,0.05850
1687.72,0.06260
1664.57,0.06974
1641.43,0.07002
1618.28,0.07652
1595.14,0.07859
1571.99,0.07777
1548.84,0.07451
1525.7,0.07277
1502.55,0.06942
1479.41,0.05479
1456.26,0.06293
1433.12,0.06065
1409.97,0.06180
1386.82,0.05488
1363.68,0.05480
1340.53,0.05854
1317.39,0.05597
1294.24,0.05513
1271.09,0.05568
1247.95,0.07290
1224.8,0.06031
1201.66,0.05771
1178.51,0.05951
1155.36,0.05989
1132.22,0.05871
1109.07,0.05920
1085.93,0.05880
1062.78,0.05798
1039.64,0.05813
1016.49,0.06205
993.344,0.06253
970.198,0.06079
947.052,0.06084
923.906,0.06608
900.76,0.07137
877.614,0.07123
854.468,0.07078
831.323,0.07332
808.177,0.07244
785.031,0.07762
761.885,0.07609
738.739,0.05855
715.593,0.06162
692.447,0.09022
669.301,0.08959
646.156,0.06506
623.01,0.06084
599.864,0.05886

File: PEVA_0.18_IS_S_240809_R9.dpt
7497.33,0.10786
7474.19,0.09843
7451.04,0.10943
7427.9,0.10383
7404.75,0.09791
7381.6,0.10877
7358.46,0.10766
7335.31,0.09957
7312.17,0.09888
7289.02,0.10299
7265.87,0.10037
7242.73,0.10408
7219.58,0.09707
7196.44,0.10272
7173.29,0.10264
7150.15,0.10242
7127,0.10056
7103.85,0.10180
7080.71,0.11022
7057.56,0.08979
7034.42,0.09671
7011.27,0.10838
6988.12,0.10354
6964.98,0.10054
6941.83,0.09885
6918.69,0.09812
6895.54,0.09278
6872.39,0.10107
6849.25,0.10406
6826.1,0.10277
6802.96,0.10403
6779.81,0.09648
6756.67,0.10593
6733.52,0.10101
6710.37,0.10519
6687.23,0.10607
6664.08,0.09407
6640.94,0.10554
6617.79,0.10715
6594.64,0.10294
6571.5,0.10785
6548.35,0.10726
6525.21,0.09891
6502.06,0.09934
6478.92,0.10123
6455.77,0.10278
6432.62,0.10275
6409.48,0.10462
6386.33,0.10020
6363.19,0.10434
6340.04,0.10425
6316.89,0.10540
6293.75,0.10478
6270.6,0.10318
6247.46,0.10649
6224.31,0.10194
6201.16,0.10089
6178.02,0.10146
6154.87,0.10241
6131.73,0.10184
6108.58,0.09942
6085.44,0.10527
6062.29,0.10202
6039.14,0.10361
6016,0.10294
5992.85,0.10197
5969.71,0.10324
5946.56,0.09710
5923.41,0.09904
5900.27,0.10104
5877.12,0.09583
5853.98,0.09590
5830.83,0.09250
5807.68,0.08929
5784.54,0.08565
5761.39,0.09025
5738.25,0.09666
5715.1,0.09304
5691.96,0.09370
5668.81,0.09183
5645.66,0.09409
5622.52,0.09471
5599.37,0.09917
5576.23,0.09719
5553.08,0.09979
5529.93,0.09654
5506.79,0.09778
5483.64,0.09599
5460.5,0.10098
5437.35,0.09946
5414.21,0.10061
5391.06,0.09976
5367.91,0.09802
5344.77,0.10016
5321.62,0.09926
5298.48,0.09942
5275.33,0.09968
5252.18,0.09983
5229.04,0.10008
5205.89,0.10077
5182.75,0.10140
5159.6,0.10143
5136.45,0.10206
5113.31,0.10065
5090.16,0.10070
5067.02,0.10109
5043.87,0.10081
5020.73,0.10168
4997.58,0.10090
4974.43,0.10012
4951.29,0.10008
4928.14,0.10047
4905,0.10129
4881.85,0.10186
4858.7,0.10216
4835.56,0.10104
4812.41,0.10105
4789.27,0.10230
4766.12,0.10288
4742.97,0.10341
4719.83,0.10270
4696.68,0.10314
4673.54,0.10081
4650.39,0.10123
4627.25,0.10218
4604.1,0.10065
4580.95,0.10101
4557.81,0.10154
4534.66,0.10264
4511.52,0.10174
4488.37,0.10099
4465.22,0.10020
4442.08,0.09601
4418.93,0.09286
4395.79,0.08799
4372.64,0.08220
4349.49,0.07284
4326.35,0.06354
4303.2,0.07769
4280.06,0.07609
4256.91,0.06753
4233.77,0.07375
4210.62,0.07243
4187.47,0.07109
4164.33,0.07110
4141.18,0.07233
4118.04,0.07257
4094.89,0.07384
4071.74,0.07793
4048.6,0.07944
4025.45,0.08048
4002.31,0.08406
3979.16,0.08255
3956.02,0.08452
3932.87,0.08475
3909.72,0.08445
3886.58,0.08580
3863.43,0.08727
3840.29,0.08818
3817.14,0.08824
3793.99,0.09043
3770.85,0.09074
3747.7,0.09073
3724.56,0.08959
3701.41,0.08864
3678.26,0.08621
3655.12,0.08374
3631.97,0.08545
3608.83,0.08172
3585.68,0.08948
3562.54,0.09295
3539.39,0.09349
3516.24,0.09276
3493.1,0.09154
3469.95,0.08328
3446.81,0.08238
3423.66,0.08876
3400.51,0.08937
3377.37,0.08844
3354.22,0.09027
3331.08,0.08999
3307.93,0.08915
3284.78,0.08956
3261.64,0.08938
3238.49,0.08874
3215.35,0.08837
3192.2,0.08629
3169.06,0.08516
3145.91,0.08310
3122.76,0.07992
3099.62,0.07240
3076.47,0.06493
3053.33,0.06038
3030.18,0.05650
3007.03,0.05409
2983.89,0.05133
2960.74,0.04836
2937.6,0.04047
2914.45,0.08822
2891.31,0.06838
2868.16,0.05959
2845.01,0.08398
2821.87,0.06674
2798.72,0.06659
2775.58,0.06829
2752.43,0.06877
2729.28,0.06850
2706.14,0.06910
2682.99,0.06669
2659.85,0.06650
2636.7,0.06648
2613.55,0.07035
2590.41,0.07489
2567.26,0.08002
2544.12,0.08240
2520.97,0.08473
2497.83,0.08762
2474.68,0.08712
2451.53,0.09223
2428.39,0.09230
2405.24,0.09092
2382.1,0.08995
2358.95,0.08718
2335.8,0.08252
2312.66,0.08264
2289.51,0.08486
2266.37,0.08717
2243.22,0.08865
2220.07,0.09266
2196.93,0.09326
2173.78,0.09235
2150.64,0.09252
2127.49,0.09471
2104.35,0.09313
2081.2,0.09072
2058.05,0.08756
2034.91,0.08453
2011.76,0.08539
1988.62,0.09229
1965.47,0.09316
1942.32,0.09144
1919.18,0.08883
1896.03,0.08442
1872.89,0.08506
1849.74,0.08659
1826.6,0.08330
1803.45,0.07635
1780.3,0.06997
1757.16,0.06101
1734.01,0.05012
1710.87,0.05880
1687.72,0.06261
1664.57,0.07179
1641.43,0.07178
1618.28,0.07655
1595.14,0.07819
1571.99,0.07738
1548.84,0.07675
1525.7,0.07345
1502.55,0.06939
1479.41,0.05528
1456.26,0.06362
1433.12,0.06155
1409.97,0.06201
1386.82,0.05575
1363.68,0.05572
1340.53,0.05806
1317.39,0.05733
1294.24,0.05478
1271.09,0.05568
1247.95,0.07258
1224.8,0.06152
1201.66,0.05823
1178.51,0.06023
1155.36,0.06002
1132.22,0.05932
1109.07,0.06048
1085.93,0.05937
1062.78,0.05908
1039.64,0.05822
1016.49,0.06291
993.344,0.06227
970.198,0.06069
947.052,0.06055
923.906,0.06674
900.76,0.07533
877.614,0.07534
854.468,0.07207
831.323,0.07068
808.177,0.06971
785.031,0.07785
761.885,0.08178
738.739,0.05901
715.593,0.06146
692.447,0.09824
669.301,0.09348
646.156,0.06038
623.01,0.05724
599.864,0.05687

File: PEVA_0.18_IS_S_240809_R10.dpt
7497.33,0.10010
7474.19,0.11597
7451.04,0.11179
7427.9,0.11022
7404.75,0.10831
7381.6,0.11387
7358.46,0.09567
7335.31,0.11110
7312.17,0.09685
7289.02,0.10306
7265.87,0.09524
7242.73,0.11118
7219.58,0.10208
7196.44,0.10150
7173.29,0.09537
7150.15,0.10725
7127,0.10580
7103.85,0.10237
7080.71,0.10477
7057.56,0.10184
7034.42,0.10072
7011.27,0.10488
6988.12,0.09912
6964.98,0.09229
6941.83,0.09595
6918.69,0.09754
6895.54,0.09967
6872.39,0.10001
6849.25,0.10935
6826.1,0.10690
6802.96,0.10876
6779.81,0.10789
6756.67,0.10466
6733.52,0.09520
6710.37,0.09843
6687.23,0.10195
6664.08,0.10322
6640.94,0.10078
6617.79,0.10130
6594.64,0.10874
6571.5,0.10241
6548.35,0.10606
6525.21,0.10018
6502.06,0.10366
6478.92,0.10306
6455.77,0.10221
6432.62,0.10413
6409.48,0.10138
6386.33,0.10464
6363.19,0.10304
6340.04,0.10082
6316.89,0.10692
6293.75,0.10059
6270.6,0.10025
6247.46,0.09925
6224.31,0.09905
6201.16,0.10327
6178.02,0.10256
6154.87,0.10357
6131.73,0.10325
6108.58,0.10141
6085.44,0.10102
6062.29,0.10590
6039.14,0.10141
6016,0.10041
5992.85,0.09882
5969.71,0.09891
5946.56,0.09963
5923.41,0.10130
5900.27,0.09841
5877.12,0.10102
5853.98,0.09754
5830.83,0.09551
5807.68,0.08822
5784.54,0.08446
5761.39,0.08875
5738.25,0.09388
5715.1,0.09565
5691.96,0.09438
5668.81,0.09164
5645.66,0.09517
5622.52,0.09728
5599.37,0.09733
5576.23,0.09913
5553.08,0.09807
5529.93,0.09899
5506.79,0.09579
5483.64,0.09718
5460.5,0.09738
5437.35,0.09774
5414.21,0.10014
5391.06,0.10002
5367.91,0.10080
5344.77,0.10226
5321.62,0.09871
5298.48,0.09901
5275.33,0.10029
5252.18,0.10070
5229.04,0.10007
5205.89,0.10225
5182.75,0.10203
5159.6,0.09974
5136.45,0.10182
5113.31,0.10104
5090.16,0.10087
5067.02,0.10216
5043.87,0.09991
5020.73,0.10123
4997.58,0.10189
4974.43,0.10110
4951.29,0.10185
4928.14,0.10150
4905,0.10247
4881.85,0.10196
4858.7,0.10126
4835.56,0.10142
4812.41,0.10260
4789.27,0.10475
4766.12,0.10290
4742.97,0.10286
4719.83,0.10299
4696.68,0.10285
4673.54,0.10067
4650.39,0.10200
4627.25,0.10224
4604.1,0.10160
4580.95,0.10136
4557.81,0.10271
4534.66,0.10196
4511.52,0.10217
4488.37,0.10144
4465.22,0.09980
4442.08,0.09732
4418.93,0.09358
4395.79,0.08858
4372.64,0.08218
4349.49,0.07328
4326.35,0.06341
4303.2,0.07686
4280.06,0.07676
4256.91,0.06739
4233.77,0.07560
4210.62,0.07327
4187.47,0.07179
4164.33,0.07180
4141.18,0.07311
4118.04,0.07337
4094.89,0.07390
4071.74,0.07762
4048.6,0.08044
4025.45,0.08153
4002.31,0.08424
3979.16,0.08425
3956.02,0.08502
3932.87,0.08423
3909.72,0.08539
3886.58,0.08563
3863.43,0.08706
3840.29,0.08971
3817.14,0.08962
3793.99,0.09108
3770.85,0.09111
3747.7,0.09069
3724.56,0.09082
3701.41,0.08881
3678.26,0.08721
3655.12,0.08473
3631.97,0.08572
3608.83,0.08214
3585.68,0.09143
3562.54,0.09172
3539.39,0.09338
3516.24,0.09318
3493.1,0.09288
3469.95,0.08452
3446.81,0.08286
3423.66,0.08943
3400.51,0.09080
3377.37,0.08908
3354.22,0.08959
3331.08,0.09055
3307.93,0.09067
3284.78,0.09035
3261.64,0.08939
3238.49,0.08960
3215.35,0.08881
3192.2,0.08817
3169.06,0.08588
3145.91,0.08436
3122.76,0.07988
3099.62,0.07256
3076.47,0.06578
3053.33,0.06074
3030.18,0.05654
3007.03,0.05419
2983.89,0.05180
2960.74,0.04862
2937.6,0.04016
2914.45,0.08885
2891.31,0.06910
2868.16,0.05984
2845.01,0.08415
2821.87,0.06785
2798.72,0.06653
2775.58,0.06889
2752.43,0.06982
2729.28,0.06952
2706.14,0.06972
2682.99,0.06752
2659.85,0.06684
2636.7,0.06721
2613.55,0.07058
2590.41,0.07528
2567.26,0.08039
2544.12,0.08372
2520.97,0.08543
2497.83,0.08770
2474.68,0.08794
2451.53,0.09243
2428.39,0.09294
2405.24,0.09200
2382.1,0.09118
2358.95,0.08791
2335.8,0.08282
2312.66,0.08354
2289.51,0.08565
2266.37,0.08755
2243.22,0.08938
2220.07,0.09362
2196.93,0.09430
2173.78,0.09313
2150.64,0.09298
2127.49,0.09581
2104.35,0.09415
2081.2,0.09124
2058.05,0.08835
2034.91,0.08514
2011.76,0.08674
1988.62,0.09323
1965.47,0.09319
1942.32,0.09163
1919.18,0.08949
1896.03,0.08505
1872.89,0.08617
1849.74,0.08726
1826.6,0.08366
1803.45,0.07713
1780.3,0.07050
1757.16,0.06126
1734.01,0.05073
1710.87,0.05929
1687.72,0.06286
1664.57,0.07235
1641.43,0.07191
1618.28,0.07684
1595.14,0.07879
1571.99,0.07869
1548.84,0.07706
1525.7,0.07414
1502.55,0.06996
1479.41,0.05611
1456.26,0.06443
1433.12,0.06164
1409.97,0.06258
1386.82,0.05625
1363.68,0.05552
1340.53,0.05862
1317.39,0.05750
1294.24,0.05546
1271.09,0.05525
1247.95,0.07248
1224.8,0.06246
1201.66,0.05814
1178.51,0.06010
1155.36,0.06040
1132.22,0.05995
1109.07,0.06098
1085.93,0.05969
1062.78,0.05885
1039.64,0.05825
1016.49,0.06260
993.344,0.06307
970.198,0.06072
947.052,0.06165
923.906,0.06794
900.76,0.07580
877.614,0.07575
854.468,0.07191
831.323,0.06978
808.177,0.06994
785.031,0.07874
761.885,0.08216
738.739,0.05897
715.593,0.06197
692.447,0.09903
669.301,0.09324
646.156,0.06152
623.01,0.05641
599.864,0.05631

File: PEVA_0.18_IS_T_240809_R1.dpt
7497.33,0.03586
7474.19,0.04041
7451.04,0.04314
7427.9,0.02732
7404.75,0.04008
7381.6,0.04653
7358.46,0.02474
7335.31,0.03015
7312.17,0.03458
7289.02,0.03208
7265.87,0.03306
7242.73,0.03029
7219.58,0.03620
7196.44,0.03051
7173.29,0.03451
7150.15,0.02091
7127,0.03443
7103.85,0.03995
7080.71,0.03820
7057.56,0.03063
7034.42,0.03612
7011.27,0.04094
6988.12,0.03442
6964.98,0.03288
6941.83,0.03142
6918.69,0.03370
6895.54,0.03691
6872.39,0.03309
6849.25,0.02334
6826.1,0.03066
6802.96,0.03308
6779.81,0.03418
6756.67,0.03669
6733.52,0.03873
6710.37,0.02876
6687.23,0.02591
6664.08,0.03257
6640.94,0.03395
6617.79,0.02783
6594.64,0.03141
6571.5,0.02718
6548.35,0.02696
6525.21,0.03634
6502.06,0.03277
6478.92,0.03177
6455.77,0.02912
6432.62,0.03052
6409.48,0.03755
6386.33,0.03224
6363.19,0.03089
6340.04,0.02617
6316.89,0.03047
6293.75,0.03242
6270.6,0.03221
6247.46,0.03051
6224.31,0.03334
6201.16,0.03206
6178.02,0.02924
6154.87,0.03058
6131.73,0.02989
6108.58,0.03166
6085.44,0.03188
6062.29,0.02891
6039.14,0.03244
6016,0.03075
5992.85,0.02947
5969.71,0.02882
5946.56,0.02967
5923.41,0.02945
5900.27,0.02974
5877.12,0.03140
5853.98,0.02968
5830.83,0.02817
5807.68,0.03094
5784.54,0.03268
5761.39,0.03119
5738.25,0.03110
5715.1,0.03114
5691.96,0.02775
5668.81,0.03098
5645.66,0.02971
5622.52,0.02914
5599.37,0.03012
5576.23,0.02939
5553.08,0.03127
5529.93,0.02996
5506.79,0.03013
5483.64,0.03020
5460.5,0.03128
5437.35,0.02800
5414.21,0.03309
5391.06,0.03011
5367.91,0.03085
5344.77,0.03089
5321.62,0.02937
5298.48,0.03127
5275.33,0.03165
5252.18,0.03100
5229.04,0.02886
5205.89,0.02836
5182.75,0.03088
5159.6,0.02953
5136.45,0.03099
5113.31,0.03111
5090.16,0.02946
5067.02,0.03228
5043.87,0.03103
5020.73,0.02949
4997.58,0.02941
4974.43,0.02952
4951.29,0.03034
4928.14,0.03064
4905,0.03017
4881.85,0.03103
4858.7,0.02887
4835.56,0.03056
4812.41,0.03187
4789.27,0.02983
4766.12,0.03065
4742.97,0.03036
4719.83,0.03092
4696.68,0.02922
4673.54,0.02991
4650.39,0.02910
4627.25,0.02917
4604.1,0.03028
4580.95,0.03029
4557.81,0.03079
4534.66,0.03098
4511.52,0.03080
4488.37,0.02987
4465.22,0.03073
4442.08,0.03002
4418.93,0.02923
4395.79,0.02949
4372.64,0.02991
4349.49,0.03030
4326.35,0.03038
4303.2,0.03030
4280.06,0.02982
4256.91,0.02968
4233.77,0.02922
4210.62,0.02976
4187.47,0.03028
4164.33,0.03017
4141.18,0.02981
4118.04,0.03028
4094.89,0.02974
4071.74,0.02930
4048.6,0.02967
4025.45,0.02996
4002.31,0.02942
3979.16,0.02971
3956.02,0.03051
3932.87,0.03014
3909.72,0.02997
3886.58,0.03135
3863.43,0.03010
3840.29,0.03029
3817.14,0.03022
3793.99,0.02988
3770.85,0.03051
3747.7,0.02896
3724.56,0.02958
3701.41,0.02897
3678.26,0.03038
3655.12,0.02958
3631.97,0.02841
3608.83,0.02761
3585.68,0.02707
3562.54,0.02702
3539.39,0.02659
3516.24,0.02662
3493.1,0.02684
3469.95,0.02681
3446.81,0.02642
3423.66,0.02636
3400.51,0.02613
3377.37,0.02601
3354.22,0.02623
3331.08,0.02614
3307.93,0.02634
3284.78,0.02602
3261.64,0.02657
3238.49,0.02649
3215.35,0.02651
3192.2,0.02661
3169.06,0.02671
3145.91,0.02724
3122.76,0.02638
3099.62,0.02705
3076.47,0.02703
3053.33,0.02717
3030.18,0.02657
3007.03,0.02650
2983.89,0.02653
2960.74,0.02633
2937.6,0.02539
2914.45,0.02628
2891.31,0.02663
2868.16,0.02623
2845.01,0.02690
2821.87,0.02727
2798.72,0.02725
2775.58,0.02728
2752.43,0.02710
2729.28,0.02719
2706.14,0.02674
2682.99,0.02745
2659.85,0.02689
2636.7,0.02722
2613.55,0.02725
2590.41,0.02707
2567.26,0.02748
2544.12,0.02693
2520.97,0.02675
2497.83,0.02713
2474.68,0.02708
2451.53,0.02721
2428.39,0.02691
2405.24,0.02759
2382.1,0.02722
2358.95,0.02676
2335.8,0.02619
2312.66,0.02670
2289.51,0.02635
2266.37,0.02600
2243.22,0.02610
2220.07,0.02643
2196.93,0.02587
2173.78,0.02629
2150.64,0.02598
2127.49,0.02569
2104.35,0.02588
2081.2,0.02563
2058.05,0.02585
2034.91,0.02574
2011.76,0.02563
1988.62,0.02585
1965.47,0.02550
1942.32,0.02526
1919.18,0.02522
1896.03,0.02553
1872.89,0.02527
1849.74,0.02481
1826.6,0.02500
1803.45,0.02451
1780.3,0.02306
1757.16,0.02182
1734.01,0.02362
1710.87,0.02439
1687.72,0.02328
1664.57,0.02168
1641.43,0.02202
1618.28,0.02249
1595.14,0.02196
1571.99,0.02151
1548.84,0.02196
1525.7,0.02269
1502.55,0.02238
1479.41,0.02208
1456.26,0.02128
1433.12,0.02202
1409.97,0.02134
1386.82,0.02096
1363.68,0.02097
1340.53,0.02065
1317.39,0.01973
1294.24,0.02073
1271.09,0.02197
1247.95,0.02268
1224.8,0.02209
1201.66,0.02137
1178.51,0.02059
1155.36,0.02056
1132.22,0.02094
1109.07,0.02202
1085.93,0.02236
1062.78,0.02385
1039.64,0.02333
1016.49,0.02247
993.344,0.02398
970.198,0.02312
947.052,0.02304
923.906,0.02261
900.76,0.02153
877.614,0.02196
854.468,0.02253
831.323,0.02168
808.177,0.02045
785.031,0.02064
761.885,0.02019
738.739,0.01978
715.593,0.02013
692.447,0.01930
669.301,0.01848
646.156,0.01804
623.01,0.01806
599.864,0.02008