Folder: fsri_materials_database/01_Data/PEVA/FTIR/IS (part 17)

File: PEVA_0.26_IS_S_240809_R9.dpt
7497.2,0.10694
7474.05,0.10339
7450.91,0.12265
7427.76,0.10080
7404.62,0.10775
7381.47,0.10818
7358.33,0.09840
7335.18,0.09976
7312.04,0.09643
7288.89,0.10941
7265.75,0.10562
7242.6,0.09588
7219.45,0.09811
7196.31,0.09891
7173.16,0.10057
7150.02,0.10277
7126.87,0.10273
7103.73,0.09320
7080.58,0.09777
7057.44,0.09868
7034.29,0.10191
7011.15,0.09660
6988,0.10377
6964.85,0.10644
6941.71,0.10532
6918.56,0.10489
6895.42,0.10338
6872.27,0.10150
6849.13,0.09893
6825.98,0.10376
6802.84,0.10469
6779.69,0.10291
6756.55,0.10197
6733.4,0.10070
6710.25,0.09840
6687.11,0.10669
6663.96,0.10257
6640.82,0.10442
6617.67,0.09787
6594.53,0.10049
6571.38,0.10377
6548.24,0.10208
6525.09,0.10182
6501.95,0.10249
6478.8,0.10557
6455.65,0.10447
6432.51,0.10622
6409.36,0.10461
6386.22,0.10166
6363.07,0.09909
6339.93,0.10712
6316.78,0.10124
6293.64,0.10260
6270.49,0.10880
6247.34,0.10233
6224.2,0.10157
6201.05,0.10295
6177.91,0.10074
6154.76,0.10657
6131.62,0.10549
6108.47,0.10343
6085.33,0.10291
6062.18,0.10389
6039.04,0.09939
6015.89,0.09949
5992.74,0.09896
5969.6,0.10317
5946.45,0.10074
5923.31,0.09517
5900.16,0.09539
5877.02,0.09106
5853.87,0.09057
5830.73,0.08791
5807.58,0.08843
5784.44,0.09196
5761.29,0.09473
5738.14,0.09337
5715,0.09814
5691.85,0.09309
5668.71,0.09594
5645.56,0.09892
5622.42,0.09710
5599.27,0.09875
5576.13,0.10023
5552.98,0.09687
5529.84,0.10142
5506.69,0.10075
5483.54,0.09960
5460.4,0.10193
5437.25,0.10097
5414.11,0.10367
5390.96,0.10145
5367.82,0.10190
5344.67,0.10042
5321.53,0.10168
5298.38,0.10263
5275.24,0.10303
5252.09,0.10157
5228.94,0.10133
5205.8,0.10381
5182.65,0.10328
5159.51,0.10257
5136.36,0.10533
5113.22,0.10269
5090.07,0.10322
5066.93,0.10297
5043.78,0.10475
5020.64,0.10418
4997.49,0.10389
4974.34,0.10436
4951.2,0.10467
4928.05,0.10409
4904.91,0.10419
4881.76,0.10391
4858.62,0.10365
4835.47,0.10344
4812.33,0.10325
4789.18,0.10343
4766.04,0.10451
4742.89,0.10415
4719.74,0.10239
4696.6,0.10185
4673.45,0.10179
4650.31,0.10188
4627.16,0.10117
4604.02,0.10254
4580.87,0.10293
4557.73,0.10353
4534.58,0.10361
4511.44,0.10231
4488.29,0.10125
4465.14,0.09897
4442,0.09456
4418.85,0.08688
4395.71,0.08263
4372.56,0.07719
4349.42,0.07093
4326.27,0.06908
4303.13,0.07466
4279.98,0.07414
4256.84,0.07518
4233.69,0.07372
4210.54,0.07432
4187.4,0.07594
4164.25,0.07575
4141.11,0.07849
4117.96,0.08007
4094.82,0.07831
4071.67,0.07837
4048.53,0.08230
4025.38,0.08402
4002.24,0.08439
3979.09,0.08785
3955.94,0.08847
3932.8,0.08891
3909.65,0.08947
3886.51,0.08944
3863.36,0.08930
3840.22,0.09020
3817.07,0.09123
3793.93,0.09279
3770.78,0.09368
3747.64,0.09314
3724.49,0.09488
3701.34,0.09219
3678.2,0.08598
3655.05,0.08647
3631.91,0.08760
3608.76,0.08419
3585.62,0.08185
3562.47,0.07912
3539.33,0.07730
3516.18,0.07605
3493.04,0.07366
3469.89,0.07110
3446.74,0.06856
3423.6,0.06576
3400.45,0.06764
3377.31,0.07240
3354.16,0.07402
3331.02,0.07264
3307.87,0.06732
3284.73,0.07014
3261.58,0.07634
3238.44,0.07736
3215.29,0.07603
3192.14,0.07516
3169,0.07594
3145.85,0.07589
3122.71,0.07262
3099.56,0.06915
3076.42,0.06613
3053.27,0.06387
3030.13,0.06255
3006.98,0.05936
2983.84,0.05751
2960.69,0.05958
2937.54,0.05964
2914.4,0.06291
2891.25,0.06290
2868.11,0.06316
2844.96,0.06440
2821.82,0.06316
2798.67,0.06492
2775.53,0.06948
2752.38,0.06976
2729.24,0.06833
2706.09,0.07245
2682.94,0.07304
2659.8,0.07462
2636.65,0.07546
2613.51,0.07454
2590.36,0.07443
2567.22,0.07427
2544.07,0.07552
2520.93,0.07740
2497.78,0.07949
2474.64,0.08145
2451.49,0.08137
2428.34,0.07938
2405.2,0.07728
2382.05,0.07489
2358.91,0.07781
2335.76,0.08158
2312.62,0.08353
2289.47,0.08159
2266.33,0.08089
2243.18,0.08134
2220.04,0.08210
2196.89,0.08428
2173.74,0.08615
2150.6,0.08554
2127.45,0.08416
2104.31,0.08384
2081.16,0.08295
2058.02,0.08347
2034.87,0.08440
2011.73,0.08513
1988.58,0.08270
1965.44,0.07924
1942.29,0.07399
1919.14,0.08082
1896,0.08128
1872.85,0.08108
1849.71,0.07661
1826.56,0.06715
1803.42,0.06705
1780.27,0.06171
1757.13,0.05579
1733.98,0.05014
1710.84,0.07100
1687.69,0.06231
1664.54,0.06207
1641.4,0.06130
1618.25,0.06382
1595.11,0.06538
1571.96,0.05986
1548.82,0.06104
1525.67,0.06057
1502.53,0.05708
1479.38,0.05568
1456.24,0.05717
1433.09,0.05659
1409.94,0.05708
1386.8,0.05529
1363.65,0.05557
1340.51,0.05268
1317.36,0.05320
1294.22,0.04870
1271.07,0.06653
1247.93,0.07365
1224.78,0.06920
1201.64,0.06394
1178.49,0.06161
1155.34,0.05898
1132.2,0.05424
1109.05,0.06544
1085.91,0.06760
1062.76,0.06545
1039.62,0.06344
1016.47,0.06650
993.326,0.06151
970.18,0.06252
947.035,0.06499
923.89,0.06393
900.744,0.06332
877.599,0.06244
854.453,0.06324
831.308,0.06257
808.162,0.06387
785.017,0.06003
761.871,0.06045
738.726,0.05214
715.58,0.06131
692.435,0.06025
669.29,0.06097
646.144,0.05731
622.999,0.06163
599.853,0.06587

File: PEVA_0.26_IS_S_240809_R10.dpt
7497.2,0.10319
7474.05,0.10304
7450.91,0.10243
7427.76,0.10691
7404.62,0.10311
7381.47,0.10814
7358.33,0.11594
7335.18,0.09760
7312.04,0.10350
7288.89,0.10095
7265.75,0.09754
7242.6,0.10250
7219.45,0.10281
7196.31,0.10333
7173.16,0.10791
7150.02,0.09458
7126.87,0.10319
7103.73,0.10877
7080.58,0.09137
7057.44,0.10180
7034.29,0.10237
7011.15,0.09831
6988,0.10102
6964.85,0.10094
6941.71,0.10412
6918.56,0.10258
6895.42,0.10491
6872.27,0.10193
6849.13,0.09851
6825.98,0.10237
6802.84,0.10353
6779.69,0.10498
6756.55,0.09851
6733.4,0.10309
6710.25,0.10209
6687.11,0.10783
6663.96,0.10467
6640.82,0.09854
6617.67,0.10092
6594.53,0.10711
6571.38,0.10482
6548.24,0.10396
6525.09,0.09634
6501.95,0.09941
6478.8,0.10074
6455.65,0.09645
6432.51,0.10617
6409.36,0.09960
6386.22,0.10021
6363.07,0.10296
6339.93,0.10260
6316.78,0.10927
6293.64,0.09992
6270.49,0.09982
6247.34,0.10202
6224.2,0.09775
6201.05,0.10425
6177.91,0.09786
6154.76,0.10196
6131.62,0.10165
6108.47,0.10279
6085.33,0.10196
6062.18,0.10275
6039.04,0.09874
6015.89,0.09551
5992.74,0.10061
5969.6,0.09857
5946.45,0.09815
5923.31,0.09522
5900.16,0.09559
5877.02,0.09259
5853.87,0.09120
5830.73,0.08618
5807.58,0.08910
5784.44,0.09091
5761.29,0.09186
5738.14,0.09395
5715,0.09488
5691.85,0.09479
5668.71,0.09587
5645.56,0.09689
5622.42,0.09850
5599.27,0.09711
5576.13,0.09875
5552.98,0.09632
5529.84,0.10010
5506.69,0.10105
5483.54,0.09816
5460.4,0.10015
5437.25,0.09704
5414.11,0.09758
5390.96,0.10101
5367.82,0.09975
5344.67,0.10094
5321.53,0.10333
5298.38,0.10158
5275.24,0.09997
5252.09,0.10301
5228.94,0.10262
5205.8,0.10340
5182.65,0.10063
5159.51,0.10256
5136.36,0.10131
5113.22,0.10059
5090.07,0.10238
5066.93,0.10105
5043.78,0.10313
5020.64,0.10166
4997.49,0.10213
4974.34,0.10267
4951.2,0.10289
4928.05,0.10345
4904.91,0.10339
4881.76,0.10227
4858.62,0.10203
4835.47,0.10294
4812.33,0.10141
4789.18,0.10193
4766.04,0.10321
4742.89,0.10172
4719.74,0.10121
4696.6,0.10069
4673.45,0.09934
4650.31,0.10098
4627.16,0.09977
4604.02,0.10070
4580.87,0.10096
4557.73,0.10081
4534.58,0.10172
4511.44,0.10094
4488.29,0.09941
4465.14,0.09831
4442,0.09306
4418.85,0.08534
4395.71,0.08039
4372.56,0.07573
4349.42,0.07058
4326.27,0.06855
4303.13,0.07239
4279.98,0.07180
4256.84,0.07324
4233.69,0.07341
4210.54,0.07282
4187.4,0.07524
4164.25,0.07426
4141.11,0.07808
4117.96,0.07928
4094.82,0.07784
4071.67,0.07679
4048.53,0.08095
4025.38,0.08179
4002.24,0.08335
3979.09,0.08644
3955.94,0.08710
3932.8,0.08717
3909.65,0.08776
3886.51,0.08807
3863.36,0.08818
3840.22,0.08897
3817.07,0.09008
3793.93,0.09046
3770.78,0.09170
3747.64,0.09176
3724.49,0.09279
3701.34,0.09090
3678.2,0.08467
3655.05,0.08552
3631.91,0.08579
3608.76,0.08256
3585.62,0.08119
3562.47,0.07725
3539.33,0.07545
3516.18,0.07459
3493.04,0.07172
3469.89,0.06929
3446.74,0.06723
3423.6,0.06468
3400.45,0.06771
3377.31,0.07075
3354.16,0.07257
3331.02,0.07123
3307.87,0.06522
3284.73,0.06911
3261.58,0.07491
3238.44,0.07528
3215.29,0.07451
3192.14,0.07373
3169,0.07425
3145.85,0.07442
3122.71,0.07200
3099.56,0.06818
3076.42,0.06500
3053.27,0.06239
3030.13,0.06109
3006.98,0.05766
2983.84,0.05610
2960.69,0.05790
2937.54,0.05881
2914.4,0.06225
2891.25,0.06192
2868.11,0.06180
2844.96,0.06278
2821.82,0.06206
2798.67,0.06394
2775.53,0.06750
2752.38,0.06807
2729.24,0.06748
2706.09,0.07112
2682.94,0.07171
2659.8,0.07297
2636.65,0.07374
2613.51,0.07308
2590.36,0.07271
2567.22,0.07319
2544.07,0.07414
2520.93,0.07538
2497.78,0.07881
2474.64,0.07974
2451.49,0.07982
2428.34,0.07815
2405.2,0.07532
2382.05,0.07393
2358.91,0.07650
2335.76,0.08042
2312.62,0.08229
2289.47,0.08016
2266.33,0.07947
2243.18,0.07993
2220.04,0.08010
2196.89,0.08267
2173.74,0.08436
2150.6,0.08365
2127.45,0.08278
2104.31,0.08226
2081.16,0.08147
2058.02,0.08188
2034.87,0.08240
2011.73,0.08358
1988.58,0.08107
1965.44,0.07751
1942.29,0.07277
1919.14,0.07929
1896,0.07977
1872.85,0.07961
1849.71,0.07575
1826.56,0.06640
1803.42,0.06566
1780.27,0.06036
1757.13,0.05463
1733.98,0.04963
1710.84,0.06883
1687.69,0.06062
1664.54,0.06055
1641.4,0.06000
1618.25,0.06203
1595.11,0.06341
1571.96,0.05813
1548.82,0.05964
1525.67,0.05885
1502.53,0.05591
1479.38,0.05437
1456.24,0.05520
1433.09,0.05540
1409.94,0.05609
1386.8,0.05395
1363.65,0.05433
1340.51,0.05203
1317.36,0.05218
1294.22,0.04742
1271.07,0.06469
1247.93,0.07217
1224.78,0.06789
1201.64,0.06258
1178.49,0.06021
1155.34,0.05836
1132.2,0.05320
1109.05,0.06326
1085.91,0.06654
1062.76,0.06400
1039.62,0.06200
1016.47,0.06463
993.326,0.06135
970.18,0.06060
947.035,0.06357
923.89,0.06250
900.744,0.06131
877.599,0.06047
854.453,0.06141
831.308,0.06122
808.162,0.06200
785.017,0.06008
761.871,0.05917
738.726,0.05126
715.58,0.06057
692.435,0.05836
669.29,0.05863
646.144,0.05661
622.999,0.06013
599.853,0.06421

File: PEVA_0.26_IS_T_240809_R1.dpt
7497.2,0.04594
7474.05,0.03102
7450.91,0.03666
7427.76,0.02973
7404.62,0.04227
7381.47,0.03018
7358.33,0.04323
7335.18,0.02679
7312.04,0.03266
7288.89,0.03006
7265.75,0.02914
7242.6,0.03061
7219.45,0.03588
7196.31,0.03062
7173.16,0.03715
7150.02,0.03731
7126.87,0.04136
7103.73,0.03106
7080.58,0.03019
7057.44,0.03264
7034.29,0.03059
7011.15,0.03522
6988,0.03430
6964.85,0.03240
6941.71,0.03177
6918.56,0.02841
6895.42,0.02982
6872.27,0.03404
6849.13,0.03203
6825.98,0.03030
6802.84,0.03274
6779.69,0.03580
6756.55,0.03254
6733.4,0.03267
6710.25,0.03606
6687.11,0.02082
6663.96,0.03168
6640.82,0.02985
6617.67,0.03478
6594.53,0.03525
6571.38,0.03398
6548.24,0.03323
6525.09,0.03330
6501.95,0.02721
6478.8,0.03129
6455.65,0.02641
6432.51,0.02915
6409.36,0.03109
6386.22,0.03482
6363.07,0.03479
6339.93,0.03275
6316.78,0.03103
6293.64,0.02983
6270.49,0.03105
6247.34,0.02904
6224.2,0.03509
6201.05,0.03263
6177.91,0.03389
6154.76,0.03189
6131.62,0.03111
6108.47,0.03705
6085.33,0.02999
6062.18,0.02679
6039.04,0.03070
6015.89,0.02657
5992.74,0.02711
5969.6,0.03111
5946.45,0.03031
5923.31,0.03041
5900.16,0.03108
5877.02,0.02958
5853.87,0.02982
5830.73,0.03229
5807.58,0.03204
5784.44,0.02613
5761.29,0.03089
5738.14,0.02912
5715,0.03059
5691.85,0.03028
5668.71,0.03087
5645.56,0.03101
5622.42,0.03012
5599.27,0.03067
5576.13,0.02817
5552.98,0.02927
5529.84,0.02988
5506.69,0.02945
5483.54,0.03036
5460.4,0.03042
5437.25,0.03105
5414.11,0.03115
5390.96,0.03110
5367.82,0.03130
5344.67,0.03007
5321.53,0.02999
5298.38,0.03017
5275.24,0.03069
5252.09,0.03181
5228.94,0.02873
5205.8,0.02933
5182.65,0.02977
5159.51,0.03047
5136.36,0.02965
5113.22,0.03068
5090.07,0.02991
5066.93,0.03020
5043.78,0.02920
5020.64,0.03117
4997.49,0.03079
4974.34,0.03089
4951.2,0.03054
4928.05,0.03085
4904.91,0.03190
4881.76,0.03184
4858.62,0.03035
4835.47,0.03049
4812.33,0.03239
4789.18,0.03020
4766.04,0.02985
4742.89,0.03168
4719.74,0.03118
4696.6,0.03252
4673.45,0.03114
4650.31,0.03090
4627.16,0.03059
4604.02,0.02997
4580.87,0.03193
4557.73,0.02978
4534.58,0.03168
4511.44,0.03054
4488.29,0.03033
4465.14,0.03096
4442,0.03110
4418.85,0.03076
4395.71,0.03084
4372.56,0.03104
4349.42,0.03058
4326.27,0.03035
4303.13,0.03077
4279.98,0.03114
4256.84,0.03022
4233.69,0.03054
4210.54,0.03075
4187.4,0.03067
4164.25,0.03057
4141.11,0.03060
4117.96,0.03071
4094.82,0.03114
4071.67,0.03066
4048.53,0.03095
4025.38,0.03039
4002.24,0.03068
3979.09,0.03061
3955.94,0.03034
3932.8,0.03075
3909.65,0.03037
3886.51,0.03065
3863.36,0.03087
3840.22,0.03098
3817.07,0.03032
3793.93,0.03018
3770.78,0.03052
3747.64,0.03111
3724.49,0.02923
3701.34,0.03031
3678.2,0.03049
3655.05,0.02901
3631.91,0.02902
3608.76,0.02923
3585.62,0.02759
3562.47,0.02791
3539.33,0.02777
3516.18,0.02777
3493.04,0.02736
3469.89,0.02737
3446.74,0.02651
3423.6,0.02676
3400.45,0.02618
3377.31,0.02695
3354.16,0.02690
3331.02,0.02691
3307.87,0.02639
3284.73,0.02699
3261.58,0.02663
3238.44,0.02741
3215.29,0.02755
3192.14,0.02648
3169,0.02750
3145.85,0.02691
3122.71,0.02776
3099.56,0.02688
3076.42,0.02759
3053.27,0.02742
3030.13,0.02693
3006.98,0.02719
2983.84,0.02662
2960.69,0.02614
2937.54,0.02603
2914.4,0.02643
2891.25,0.02683
2868.11,0.02685
2844.96,0.02684
2821.82,0.02798
2798.67,0.02798
2775.53,0.02785
2752.38,0.02764
2729.24,0.02785
2706.09,0.02755
2682.94,0.02761
2659.8,0.02785
2636.65,0.02757
2613.51,0.02769
2590.36,0.02770
2567.22,0.02739
2544.07,0.02736
2520.93,0.02745
2497.78,0.02737
2474.64,0.02718
2451.49,0.02717
2428.34,0.02710
2405.2,0.02699
2382.05,0.02718
2358.91,0.02699
2335.76,0.02698
2312.62,0.02745
2289.47,0.02696
2266.33,0.02685
2243.18,0.02713
2220.04,0.02709
2196.89,0.02669
2173.74,0.02661
2150.6,0.02681
2127.45,0.02655
2104.31,0.02649
2081.16,0.02617
2058.02,0.02665
2034.87,0.02657
2011.73,0.02585
1988.58,0.02603
1965.44,0.02607
1942.29,0.02591
1919.14,0.02542
1896,0.02533
1872.85,0.02554
1849.71,0.02512
1826.56,0.02530
1803.42,0.02493
1780.27,0.02363
1757.13,0.02165
1733.98,0.02373
1710.84,0.02468
1687.69,0.02331
1664.54,0.02243
1641.4,0.02279
1618.25,0.02297
1595.11,0.02285
1571.96,0.02215
1548.82,0.02230
1525.67,0.02229
1502.53,0.02274
1479.38,0.02223
1456.24,0.02245
1433.09,0.02210
1409.94,0.02150
1386.8,0.02094
1363.65,0.02126
1340.51,0.02087
1317.36,0.01998
1294.22,0.02073
1271.07,0.02194
1247.93,0.02321
1224.78,0.02251
1201.64,0.02220
1178.49,0.02108
1155.34,0.02022
1132.2,0.02099
1109.05,0.02243
1085.91,0.02235
1062.76,0.02477
1039.62,0.02370
1016.47,0.02333
993.326,0.02482
970.18,0.02369
947.035,0.02337
923.89,0.02321
900.744,0.02290
877.599,0.02282
854.453,0.02231
831.308,0.02206
808.162,0.02190
785.017,0.02030
761.871,0.02023
738.726,0.02080
715.58,0.01987
692.435,0.02009
669.29,0.01912
646.144,0.01912
622.999,0.01927
599.853,0.02139

File: PEVA_0.26_IS_T_240809_R2.dpt
7497.2,0.04274
7474.05,0.03139
7450.91,0.03258
7427.76,0.03016
7404.62,0.02420
7381.47,0.02860
7358.33,0.03982
7335.18,0.04523
7312.04,0.03453
7288.89,0.03965
7265.75,0.02882
7242.6,0.03116
7219.45,0.02430
7196.31,0.04018
7173.16,0.03110
7150.02,0.03148
7126.87,0.02694
7103.73,0.03896
7080.58,0.03118
7057.44,0.03343
7034.29,0.03044
7011.15,0.03577
6988,0.03281
6964.85,0.02865
6941.71,0.03034
6918.56,0.03352
6895.42,0.02741
6872.27,0.03487
6849.13,0.03153
6825.98,0.03033
6802.84,0.02956
6779.69,0.02865
6756.55,0.03413
6733.4,0.03220
6710.25,0.03430
6687.11,0.02698
6663.96,0.03545
6640.82,0.03091
6617.67,0.03191
6594.53,0.03504
6571.38,0.03584
6548.24,0.03266
6525.09,0.03268
6501.95,0.03292
6478.8,0.03125
6455.65,0.02967
6432.51,0.03221
6409.36,0.02902
6386.22,0.03278
6363.07,0.03233
6339.93,0.03387
6316.78,0.02793
6293.64,0.03205
6270.49,0.03118
6247.34,0.02935
6224.2,0.03446
6201.05,0.03305
6177.91,0.03001
6154.76,0.03311
6131.62,0.02947
6108.47,0.02996
6085.33,0.03026
6062.18,0.03158
6039.04,0.02816
6015.89,0.02827
5992.74,0.03015
5969.6,0.03022
5946.45,0.03132
5923.31,0.02809
5900.16,0.02860
5877.02,0.03144
5853.87,0.03003
5830.73,0.02893
5807.58,0.02986
5784.44,0.03010
5761.29,0.03061
5738.14,0.03310
5715,0.03100
5691.85,0.03069
5668.71,0.02905
5645.56,0.02922
5622.42,0.03072
5599.27,0.03121
5576.13,0.03035
5552.98,0.03002
5529.84,0.03062
5506.69,0.03134
5483.54,0.03240
5460.4,0.03201
5437.25,0.03028
5414.11,0.03111
5390.96,0.03168
5367.82,0.03317
5344.67,0.03188
5321.53,0.03116
5298.38,0.03037
5275.24,0.03000
5252.09,0.03065
5228.94,0.03123
5205.8,0.03011
5182.65,0.03149
5159.51,0.03062
5136.36,0.03190
5113.22,0.03058
5090.07,0.03080
5066.93,0.03025
5043.78,0.03158
5020.64,0.03122
4997.49,0.03005
4974.34,0.03046
4951.2,0.02965
4928.05,0.03115
4904.91,0.03010
4881.76,0.03114
4858.62,0.03070
4835.47,0.03022
4812.33,0.03051
4789.18,0.03052
4766.04,0.02970
4742.89,0.03148
4719.74,0.03072
4696.6,0.03138
4673.45,0.03096
4650.31,0.03024
4627.16,0.03125
4604.02,0.03053
4580.87,0.03056
4557.73,0.03065
4534.58,0.03161
4511.44,0.03088
4488.29,0.03068
4465.14,0.03105
4442,0.03008
4418.85,0.02952
4395.71,0.03089
4372.56,0.02946
4349.42,0.03026
4326.27,0.03058
4303.13,0.03109
4279.98,0.03034
4256.84,0.03035
4233.69,0.03038
4210.54,0.03029
4187.4,0.03107
4164.25,0.03025
4141.11,0.02956
4117.96,0.02997
4094.82,0.03065
4071.67,0.03049
4048.53,0.03036
4025.38,0.03063
4002.24,0.03093
3979.09,0.03097
3955.94,0.03056
3932.8,0.03028
3909.65,0.02981
3886.51,0.03055
3863.36,0.03015
3840.22,0.03005
3817.07,0.03024
3793.93,0.03024
3770.78,0.03084
3747.64,0.03099
3724.49,0.02976
3701.34,0.02906
3678.2,0.02948
3655.05,0.02919
3631.91,0.03006
3608.76,0.02844
3585.62,0.02844
3562.47,0.02753
3539.33,0.02674
3516.18,0.02615
3493.04,0.02749
3469.89,0.02718
3446.74,0.02642
3423.6,0.02659
3400.45,0.02673
3377.31,0.02722
3354.16,0.02661
3331.02,0.02629
3307.87,0.02619
3284.73,0.02615
3261.58,0.02645
3238.44,0.02749
3215.29,0.02716
3192.14,0.02787
3169,0.02739
3145.85,0.02704
3122.71,0.02733
3099.56,0.02656
3076.42,0.02714
3053.27,0.02718
3030.13,0.02755
3006.98,0.02704
2983.84,0.02631
2960.69,0.02616
2937.54,0.02588
2914.4,0.02696
2891.25,0.02642
2868.11,0.02661
2844.96,0.02718
2821.82,0.02784
2798.67,0.02782
2775.53,0.02765
2752.38,0.02748
2729.24,0.02744
2706.09,0.02730
2682.94,0.02728
2659.8,0.02741
2636.65,0.02717
2613.51,0.02741
2590.36,0.02731
2567.22,0.02731
2544.07,0.02695
2520.93,0.02674
2497.78,0.02728
2474.64,0.02694
2451.49,0.02722
2428.34,0.02695
2405.2,0.02739
2382.05,0.02683
2358.91,0.02803
2335.76,0.02727
2312.62,0.02639
2289.47,0.02665
2266.33,0.02692
2243.18,0.02672
2220.04,0.02672
2196.89,0.02632
2173.74,0.02655
2150.6,0.02638
2127.45,0.02635
2104.31,0.02594
2081.16,0.02583
2058.02,0.02617
2034.87,0.02609
2011.73,0.02600
1988.58,0.02574
1965.44,0.02553
1942.29,0.02596
1919.14,0.02559
1896,0.02518
1872.85,0.02523
1849.71,0.02521
1826.56,0.02509
1803.42,0.02458
1780.27,0.02334
1757.13,0.02175
1733.98,0.02436
1710.84,0.02403
1687.69,0.02315
1664.54,0.02214
1641.4,0.02192
1618.25,0.02302
1595.11,0.02240
1571.96,0.02184
1548.82,0.02243
1525.67,0.02311
1502.53,0.02222
1479.38,0.02197
1456.24,0.02199
1433.09,0.02135
1409.94,0.02117
1386.8,0.02111
1363.65,0.02090
1340.51,0.02104
1317.36,0.02012
1294.22,0.02064
1271.07,0.02209
1247.93,0.02270
1224.78,0.02238
1201.64,0.02135
1178.49,0.02113
1155.34,0.02048
1132.2,0.02066
1109.05,0.02286
1085.91,0.02216
1062.76,0.02435
1039.62,0.02373
1016.47,0.02319
993.326,0.02443
970.18,0.02436
947.035,0.02388
923.89,0.02168
900.744,0.02207
877.599,0.02271
854.453,0.02244
831.308,0.02209
808.162,0.02149
785.017,0.02208
761.871,0.02121
738.726,0.02107
715.58,0.02004
692.435,0.01868
669.29,0.01769
646.144,0.01956
622.999,0.01815
599.853,0.01985

File: PEVA_0.26_IS_T_240809_R3.dpt
7497.2,0.03803
7474.05,0.03024
7450.91,0.03252
7427.76,0.04492
7404.62,0.03699
7381.47,0.03435
7358.33,0.03422
7335.18,0.03785
7312.04,0.02941
7288.89,0.02575
7265.75,0.03835
7242.6,0.03177
7219.45,0.03827
7196.31,0.03226
7173.16,0.03520
7150.02,0.02315
7126.87,0.02920
7103.73,0.03057
7080.58,0.03840
7057.44,0.03888
7034.29,0.04182
7011.15,0.03588
6988,0.03096
6964.85,0.03466
6941.71,0.03395
6918.56,0.03423
6895.42,0.03104
6872.27,0.03520
6849.13,0.03100
6825.98,0.03551
6802.84,0.03167
6779.69,0.04336
6756.55,0.03153
6733.4,0.03479
6710.25,0.03679
6687.11,0.03132
6663.96,0.03371
6640.82,0.03319
6617.67,0.03176
6594.53,0.02588
6571.38,0.03096
6548.24,0.03209
6525.09,0.03016
6501.95,0.02675
6478.8,0.02856
6455.65,0.03085
6432.51,0.03036
6409.36,0.03481
6386.22,0.03578
6363.07,0.03007
6339.93,0.03044
6316.78,0.03508
6293.64,0.03402
6270.49,0.03142
6247.34,0.03007
6224.2,0.03307
6201.05,0.02820
6177.91,0.03187
6154.76,0.03010
6131.62,0.02938
6108.47,0.02925
6085.33,0.03078
6062.18,0.03110
6039.04,0.03214
6015.89,0.03019
5992.74,0.03120
5969.6,0.02886
5946.45,0.02968
5923.31,0.03563
5900.16,0.03042
5877.02,0.03163
5853.87,0.02986
5830.73,0.03243
5807.58,0.03167
5784.44,0.03043
5761.29,0.03355
5738.14,0.03208
5715,0.03111
5691.85,0.03077
5668.71,0.03225
5645.56,0.03008
5622.42,0.02964
5599.27,0.03406
5576.13,0.03122
5552.98,0.03049
5529.84,0.03005
5506.69,0.03037
5483.54,0.03168
5460.4,0.03320
5437.25,0.03254
5414.11,0.03176
5390.96,0.03283
5367.82,0.03114
5344.67,0.03137
5321.53,0.03077
5298.38,0.03126
5275.24,0.03212
5252.09,0.03243
5228.94,0.03052
5205.8,0.03014
5182.65,0.03047
5159.51,0.03123
5136.36,0.02983
5113.22,0.03171
5090.07,0.03085
5066.93,0.03150
5043.78,0.03103
5020.64,0.03123
4997.49,0.02898
4974.34,0.03066
4951.2,0.03160
4928.05,0.03054
4904.91,0.03106
4881.76,0.03128
4858.62,0.03009
4835.47,0.03055
4812.33,0.03146
4789.18,0.02991
4766.04,0.03124
4742.89,0.03051
4719.74,0.03134
4696.6,0.03197
4673.45,0.03146
4650.31,0.03091
4627.16,0.02989
4604.02,0.03174
4580.87,0.03029
4557.73,0.03130
4534.58,0.03056
4511.44,0.03125
4488.29,0.03120
4465.14,0.03037
4442,0.03050
4418.85,0.03076
4395.71,0.03019
4372.56,0.03106
4349.42,0.02953
4326.27,0.03007
4303.13,0.03072
4279.98,0.02986
4256.84,0.03034
4233.69,0.02991
4210.54,0.03051
4187.4,0.03043
4164.25,0.03083
4141.11,0.03083
4117.96,0.03044
4094.82,0.03057
4071.67,0.03038
4048.53,0.03053
4025.38,0.03053
4002.24,0.03031
3979.09,0.02990
3955.94,0.02995
3932.8,0.03045
3909.65,0.03091
3886.51,0.03145
3863.36,0.02956
3840.22,0.03025
3817.07,0.03045
3793.93,0.03033
3770.78,0.03082
3747.64,0.02920
3724.49,0.03052
3701.34,0.03003
3678.2,0.02960
3655.05,0.02966
3631.91,0.02874
3608.76,0.02841
3585.62,0.02785
3562.47,0.02817
3539.33,0.02720
3516.18,0.02741
3493.04,0.02710
3469.89,0.02734
3446.74,0.02641
3423.6,0.02613
3400.45,0.02665
3377.31,0.02641
3354.16,0.02595
3331.02,0.02649
3307.87,0.02590
3284.73,0.02660
3261.58,0.02691
3238.44,0.02685
3215.29,0.02662
3192.14,0.02612
3169,0.02768
3145.85,0.02760
3122.71,0.02709
3099.56,0.02678
3076.42,0.02722
3053.27,0.02747
3030.13,0.02730
3006.98,0.02709
2983.84,0.02639
2960.69,0.02651
2937.54,0.02594
2914.4,0.02640
2891.25,0.02669
2868.11,0.02675
2844.96,0.02720
2821.82,0.02749
2798.67,0.02747
2775.53,0.02730
2752.38,0.02759
2729.24,0.02730
2706.09,0.02733
2682.94,0.02819
2659.8,0.02743
2636.65,0.02736
2613.51,0.02727
2590.36,0.02767
2567.22,0.02732
2544.07,0.02731
2520.93,0.02699
2497.78,0.02712
2474.64,0.02705
2451.49,0.02717
2428.34,0.02692
2405.2,0.02694
2382.05,0.02707
2358.91,0.02810
2335.76,0.02687
2312.62,0.02696
2289.47,0.02691
2266.33,0.02666
2243.18,0.02681
2220.04,0.02666
2196.89,0.02636
2173.74,0.02655
2150.6,0.02614
2127.45,0.02625
2104.31,0.02640
2081.16,0.02664
2058.02,0.02641
2034.87,0.02615
2011.73,0.02595
1988.58,0.02613
1965.44,0.02600
1942.29,0.02612
1919.14,0.02580
1896,0.02540
1872.85,0.02576
1849.71,0.02554
1826.56,0.02498
1803.42,0.02442
1780.27,0.02368
1757.13,0.02220
1733.98,0.02388
1710.84,0.02407
1687.69,0.02348
1664.54,0.02220
1641.4,0.02230
1618.25,0.02238
1595.11,0.02282
1571.96,0.02178
1548.82,0.02233
1525.67,0.02239
1502.53,0.02224
1479.38,0.02216
1456.24,0.02197
1433.09,0.02166
1409.94,0.02117
1386.8,0.02107
1363.65,0.02109
1340.51,0.02053
1317.36,0.02008
1294.22,0.02063
1271.07,0.02166
1247.93,0.02300
1224.78,0.02224
1201.64,0.02169
1178.49,0.02042
1155.34,0.02040
1132.2,0.02104
1109.05,0.02252
1085.91,0.02207
1062.76,0.02470
1039.62,0.02399
1016.47,0.02351
993.326,0.02403
970.18,0.02370
947.035,0.02343
923.89,0.02240
900.744,0.02261
877.599,0.02223
854.453,0.02263
831.308,0.02205
808.162,0.02083
785.017,0.02161
761.871,0.02083
738.726,0.01998
715.58,0.01942
692.435,0.01925
669.29,0.02020
646.144,0.01758
622.999,0.01891
599.853,0.02009