Folder: fsri_materials_database/01_Data/PEVA/FTIR/IS

File: PEVA_0.10_IS_S_240808_R1.dpt
7496.93,0.10284
7473.78,0.08627
7450.64,0.09436
7427.49,0.08908
7404.35,0.09471
7381.2,0.08215
7358.06,0.09573
7334.91,0.09751
7311.77,0.09886
7288.62,0.10071
7265.48,0.08539
7242.34,0.09054
7219.19,0.09294
7196.05,0.09624
7172.9,0.09712
7149.76,0.09632
7126.61,0.08511
7103.47,0.09565
7080.32,0.09135
7057.18,0.08603
7034.03,0.09664
7010.89,0.09285
6987.74,0.10223
6964.6,0.09513
6941.46,0.10618
6918.31,0.10170
6895.17,0.10071
6872.02,0.09830
6848.88,0.09778
6825.73,0.09558
6802.59,0.09711
6779.44,0.09539
6756.3,0.09835
6733.15,0.09559
6710.01,0.09520
6686.86,0.09804
6663.72,0.10214
6640.58,0.09602
6617.43,0.09282
6594.29,0.10069
6571.14,0.09468
6548,0.10561
6524.85,0.09220
6501.71,0.09627
6478.56,0.09614
6455.42,0.09928
6432.27,0.09154
6409.13,0.09413
6385.98,0.09303
6362.84,0.10010
6339.7,0.09930
6316.55,0.09429
6293.41,0.09542
6270.26,0.09534
6247.12,0.09527
6223.97,0.09571
6200.83,0.09489
6177.68,0.10063
6154.54,0.09697
6131.39,0.09636
6108.25,0.09643
6085.1,0.09731
6061.96,0.09810
6038.82,0.09902
6015.67,0.09696
5992.53,0.09737
5969.38,0.09495
5946.24,0.09800
5923.09,0.09710
5899.95,0.09791
5876.8,0.09184
5853.66,0.09430
5830.51,0.08962
5807.37,0.08919
5784.22,0.08484
5761.08,0.08954
5737.94,0.09389
5714.79,0.09333
5691.65,0.09399
5668.5,0.09007
5645.36,0.09443
5622.21,0.09415
5599.07,0.09449
5575.92,0.09613
5552.78,0.09721
5529.63,0.09743
5506.49,0.09637
5483.34,0.09402
5460.2,0.09648
5437.06,0.09723
5413.91,0.09670
5390.77,0.09456
5367.62,0.09653
5344.48,0.09691
5321.33,0.09792
5298.19,0.09794
5275.04,0.09826
5251.9,0.09628
5228.75,0.09695
5205.61,0.09642
5182.46,0.09621
5159.32,0.09928
5136.18,0.09949
5113.03,0.09684
5089.89,0.09697
5066.74,0.09810
5043.6,0.09822
5020.45,0.09944
4997.31,0.09909
4974.16,0.09808
4951.02,0.09888
4927.87,0.09708
4904.73,0.09933
4881.58,0.09798
4858.44,0.09798
4835.3,0.09967
4812.15,0.09857
4789.01,0.09933
4765.86,0.09939
4742.72,0.10041
4719.57,0.10095
4696.43,0.10053
4673.28,0.09925
4650.14,0.09951
4626.99,0.10030
4603.85,0.10005
4580.7,0.09974
4557.56,0.09999
4534.42,0.09992
4511.27,0.09901
4488.13,0.09898
4464.98,0.09810
4441.84,0.09712
4418.69,0.09728
4395.55,0.09288
4372.4,0.08830
4349.26,0.08096
4326.11,0.06636
4302.97,0.08392
4279.82,0.08363
4256.68,0.07184
4233.54,0.08093
4210.39,0.07816
4187.25,0.07530
4164.1,0.07622
4140.96,0.07627
4117.81,0.07722
4094.67,0.07827
4071.52,0.08198
4048.38,0.08454
4025.23,0.08695
4002.09,0.08832
3978.94,0.08914
3955.8,0.09045
3932.66,0.08811
3909.51,0.08955
3886.37,0.09008
3863.22,0.08847
3840.08,0.09018
3816.93,0.09197
3793.79,0.09048
3770.64,0.09305
3747.5,0.09381
3724.35,0.09196
3701.21,0.09247
3678.06,0.09305
3654.92,0.08813
3631.78,0.09133
3608.63,0.08660
3585.49,0.09219
3562.34,0.09573
3539.2,0.09607
3516.05,0.09371
3492.91,0.09766
3469.76,0.09621
3446.62,0.09176
3423.47,0.09400
3400.33,0.09328
3377.18,0.08937
3354.04,0.09326
3330.9,0.09465
3307.75,0.09103
3284.61,0.09367
3261.46,0.09513
3238.32,0.09129
3215.17,0.09045
3192.03,0.09164
3168.88,0.09093
3145.74,0.08575
3122.59,0.08432
3099.45,0.08116
3076.3,0.07433
3053.16,0.06874
3030.02,0.06247
3006.87,0.05740
2983.73,0.05068
2960.58,0.04704
2937.44,0.03891
2914.29,0.08767
2891.15,0.06782
2868,0.05865
2844.86,0.08398
2821.71,0.06803
2798.57,0.06620
2775.42,0.07123
2752.28,0.07421
2729.14,0.07365
2705.99,0.07347
2682.85,0.07170
2659.7,0.07311
2636.56,0.07447
2613.41,0.07568
2590.27,0.08085
2567.12,0.09028
2543.98,0.08983
2520.83,0.08775
2497.69,0.09706
2474.55,0.09649
2451.4,0.09311
2428.26,0.09765
2405.11,0.09853
2381.97,0.09184
2358.82,0.09424
2335.68,0.09210
2312.53,0.08819
2289.39,0.09573
2266.24,0.09873
2243.1,0.09250
2219.95,0.09961
2196.81,0.09959
2173.67,0.09371
2150.52,0.09889
2127.38,0.10027
2104.23,0.09524
2081.09,0.10142
2057.94,0.09732
2034.8,0.09193
2011.65,0.09794
1988.51,0.09737
1965.36,0.09689
1942.22,0.10210
1919.07,0.09420
1895.93,0.09495
1872.79,0.10179
1849.64,0.09469
1826.5,0.10050
1803.35,0.09998
1780.21,0.09200
1757.06,0.09751
1733.92,0.09302
1710.77,0.08717
1687.63,0.10126
1664.48,0.09307
1641.34,0.08682
1618.19,0.09968
1595.05,0.08932
1571.91,0.08452
1548.76,0.09658
1525.62,0.08642
1502.47,0.07200
1479.33,0.05695
1456.18,0.06028
1433.04,0.06495
1409.89,0.07654
1386.75,0.07260
1363.6,0.07224
1340.46,0.06945
1317.31,0.07091
1294.17,0.08482
1271.03,0.07331
1247.88,0.08171
1224.74,0.10063
1201.59,0.07923
1178.45,0.08284
1155.3,0.10033
1132.16,0.07832
1109.01,0.08762
1085.87,0.10067
1062.72,0.07803
1039.58,0.09400
1016.43,0.10457
993.29,0.07810
970.145,0.09852
947,0.10843
923.856,0.07346
900.711,0.10225
877.567,0.10856
854.422,0.06879
831.277,0.10538
808.133,0.10723
784.988,0.05999
761.844,0.08986
738.699,0.08308
715.554,0.06843
692.41,0.11835
669.265,0.06518
646.12,0.08975
622.976,0.14036
599.831,0.06786

File: PEVA_0.10_IS_S_240808_R2.dpt
7496.93,0.09862
7473.78,0.09720
7450.64,0.10048
7427.49,0.08943
7404.35,0.10485
7381.2,0.10195
7358.06,0.08376
7334.91,0.10775
7311.77,0.08896
7288.62,0.09533
7265.48,0.09735
7242.34,0.08613
7219.19,0.09524
7196.05,0.10067
7172.9,0.09388
7149.76,0.08692
7126.61,0.09783
7103.47,0.10322
7080.32,0.09775
7057.18,0.09418
7034.03,0.10049
7010.89,0.09720
6987.74,0.10116
6964.6,0.10232
6941.46,0.09219
6918.31,0.09665
6895.17,0.09642
6872.02,0.09546
6848.88,0.09353
6825.73,0.09113
6802.59,0.09155
6779.44,0.09812
6756.3,0.09399
6733.15,0.09592
6710.01,0.09529
6686.86,0.09848
6663.72,0.09431
6640.58,0.09036
6617.43,0.09588
6594.29,0.08758
6571.14,0.09863
6548,0.09599
6524.85,0.09467
6501.71,0.09626
6478.56,0.09929
6455.42,0.09973
6432.27,0.09916
6409.13,0.09638
6385.98,0.09743
6362.84,0.09173
6339.7,0.09736
6316.55,0.09781
6293.41,0.09890
6270.26,0.09717
6247.12,0.09646
6223.97,0.09707
6200.83,0.09896
6177.68,0.09769
6154.54,0.09475
6131.39,0.09802
6108.25,0.09617
6085.1,0.09611
6061.96,0.09835
6038.82,0.09466
6015.67,0.09634
5992.53,0.09389
5969.38,0.09820
5946.24,0.09605
5923.09,0.09885
5899.95,0.09375
5876.8,0.09840
5853.66,0.09201
5830.51,0.09059
5807.37,0.09100
5784.22,0.08630
5761.08,0.09043
5737.94,0.09424
5714.79,0.09468
5691.65,0.09284
5668.5,0.09152
5645.36,0.09332
5622.21,0.09537
5599.07,0.09420
5575.92,0.09463
5552.78,0.09731
5529.63,0.09329
5506.49,0.09382
5483.34,0.09656
5460.2,0.09415
5437.06,0.09661
5413.91,0.09411
5390.77,0.09787
5367.62,0.09849
5344.48,0.09773
5321.33,0.09693
5298.19,0.09632
5275.04,0.09751
5251.9,0.09842
5228.75,0.09716
5205.61,0.09584
5182.46,0.09850
5159.32,0.09874
5136.18,0.09850
5113.03,0.09715
5089.89,0.09955
5066.74,0.09775
5043.6,0.09853
5020.45,0.09672
4997.31,0.09892
4974.16,0.09742
4951.02,0.09932
4927.87,0.09891
4904.73,0.09838
4881.58,0.09859
4858.44,0.09806
4835.3,0.09874
4812.15,0.09851
4789.01,0.09990
4765.86,0.09970
4742.72,0.09883
4719.57,0.10045
4696.43,0.09965
4673.28,0.10090
4650.14,0.10002
4626.99,0.10092
4603.85,0.09987
4580.7,0.10010
4557.56,0.10116
4534.42,0.09836
4511.27,0.09924
4488.13,0.09946
4464.98,0.09861
4441.84,0.09764
4418.69,0.09555
4395.55,0.09195
4372.4,0.08827
4349.26,0.08032
4326.11,0.06727
4302.97,0.08419
4279.82,0.08373
4256.68,0.07206
4233.54,0.08080
4210.39,0.07895
4187.25,0.07557
4164.1,0.07674
4140.96,0.07632
4117.81,0.07751
4094.67,0.07810
4071.52,0.08263
4048.38,0.08524
4025.23,0.08701
4002.09,0.08888
3978.94,0.09040
3955.8,0.09019
3932.66,0.08877
3909.51,0.08909
3886.37,0.09014
3863.22,0.08866
3840.08,0.09076
3816.93,0.09100
3793.79,0.09159
3770.64,0.09240
3747.5,0.09384
3724.35,0.09250
3701.21,0.09318
3678.06,0.09150
3654.92,0.08953
3631.78,0.09053
3608.63,0.08470
3585.49,0.09212
3562.34,0.09524
3539.2,0.09575
3516.05,0.09598
3492.91,0.09575
3469.76,0.09469
3446.62,0.09337
3423.47,0.09431
3400.33,0.09366
3377.18,0.09178
3354.04,0.09317
3330.9,0.09324
3307.75,0.09283
3284.61,0.09364
3261.46,0.09411
3238.32,0.09148
3215.17,0.09158
3192.03,0.09244
3168.88,0.08944
3145.74,0.08642
3122.59,0.08552
3099.45,0.08055
3076.3,0.07310
3053.16,0.06788
3030.02,0.06171
3006.87,0.05811
2983.73,0.05106
2960.58,0.04701
2937.44,0.03898
2914.29,0.08783
2891.15,0.06875
2868,0.05867
2844.86,0.08416
2821.71,0.06792
2798.57,0.06652
2775.42,0.06980
2752.28,0.07335
2729.14,0.07273
2705.99,0.07377
2682.85,0.07382
2659.7,0.07341
2636.56,0.07225
2613.41,0.07640
2590.27,0.08306
2567.12,0.08820
2543.98,0.08812
2520.83,0.09167
2497.69,0.09605
2474.55,0.09402
2451.4,0.09659
2428.26,0.09788
2405.11,0.09451
2381.97,0.09544
2358.82,0.09430
2335.68,0.08828
2312.53,0.09203
2289.39,0.09578
2266.24,0.09431
2243.1,0.09642
2219.95,0.09946
2196.81,0.09630
2173.67,0.09800
2150.52,0.09819
2127.38,0.09652
2104.23,0.10009
2081.09,0.09987
2057.94,0.09482
2034.8,0.09564
2011.65,0.09545
1988.51,0.09648
1965.36,0.10116
1942.22,0.09868
1919.07,0.09444
1895.93,0.09767
1872.79,0.09863
1849.64,0.09623
1826.5,0.10186
1803.35,0.09620
1780.21,0.09411
1757.06,0.09822
1733.92,0.09075
1710.77,0.09031
1687.63,0.10078
1664.48,0.09100
1641.34,0.08948
1618.19,0.09832
1595.05,0.08770
1571.91,0.08736
1548.76,0.09521
1525.62,0.08489
1502.47,0.07328
1479.33,0.05648
1456.18,0.06094
1433.04,0.06427
1409.89,0.07759
1386.75,0.07494
1363.6,0.07111
1340.46,0.07057
1317.31,0.07241
1294.17,0.08259
1271.03,0.07502
1247.88,0.08218
1224.74,0.09848
1201.59,0.08028
1178.45,0.08290
1155.3,0.09900
1132.16,0.07800
1109.01,0.08771
1085.87,0.10101
1062.72,0.07780
1039.58,0.09337
1016.43,0.10616
993.29,0.07796
970.145,0.09840
947,0.10929
923.856,0.07195
900.711,0.10360
877.567,0.10897
854.422,0.06671
831.277,0.10717
808.133,0.10712
784.988,0.05815
761.844,0.09085
738.699,0.08327
715.554,0.06843
692.41,0.11782
669.265,0.06251
646.12,0.09038
622.976,0.14294
599.831,0.06010

File: PEVA_0.10_IS_S_240808_R3.dpt
7496.93,0.08275
7473.78,0.09556
7450.64,0.08853
7427.49,0.11650
7404.35,0.10804
7381.2,0.10181
7358.06,0.10488
7334.91,0.10894
7311.77,0.10016
7288.62,0.10630
7265.48,0.08542
7242.34,0.09902
7219.19,0.10877
7196.05,0.10129
7172.9,0.09516
7149.76,0.10390
7126.61,0.10058
7103.47,0.09989
7080.32,0.09464
7057.18,0.09833
7034.03,0.10039
7010.89,0.09395
6987.74,0.10042
6964.6,0.10277
6941.46,0.10155
6918.31,0.09680
6895.17,0.09797
6872.02,0.10280
6848.88,0.09440
6825.73,0.10150
6802.59,0.09904
6779.44,0.08993
6756.3,0.09808
6733.15,0.10109
6710.01,0.09381
6686.86,0.09843
6663.72,0.09586
6640.58,0.09697
6617.43,0.10049
6594.29,0.09442
6571.14,0.09831
6548,0.10108
6524.85,0.10137
6501.71,0.09918
6478.56,0.09288
6455.42,0.09515
6432.27,0.09785
6409.13,0.10144
6385.98,0.09595
6362.84,0.10075
6339.7,0.09824
6316.55,0.09953
6293.41,0.09967
6270.26,0.09643
6247.12,0.10019
6223.97,0.09642
6200.83,0.10250
6177.68,0.09839
6154.54,0.09653
6131.39,0.09964
6108.25,0.09742
6085.1,0.09809
6061.96,0.09693
6038.82,0.09963
6015.67,0.09991
5992.53,0.09612
5969.38,0.09806
5946.24,0.09776
5923.09,0.10021
5899.95,0.09547
5876.8,0.09744
5853.66,0.09597
5830.51,0.09267
5807.37,0.09096
5784.22,0.08311
5761.08,0.08919
5737.94,0.09308
5714.79,0.09394
5691.65,0.09356
5668.5,0.09144
5645.36,0.09462
5622.21,0.09435
5599.07,0.09420
5575.92,0.09507
5552.78,0.09430
5529.63,0.09415
5506.49,0.09704
5483.34,0.09574
5460.2,0.09542
5437.06,0.09674
5413.91,0.09629
5390.77,0.09591
5367.62,0.09679
5344.48,0.09844
5321.33,0.09725
5298.19,0.09813
5275.04,0.09859
5251.9,0.09896
5228.75,0.09834
5205.61,0.09805
5182.46,0.09838
5159.32,0.09824
5136.18,0.09680
5113.03,0.09825
5089.89,0.09919
5066.74,0.09861
5043.6,0.09895
5020.45,0.09857
4997.31,0.09822
4974.16,0.10075
4951.02,0.10087
4927.87,0.09817
4904.73,0.10052
4881.58,0.10087
4858.44,0.09933
4835.3,0.09935
4812.15,0.10015
4789.01,0.09958
4765.86,0.10061
4742.72,0.10002
4719.57,0.09995
4696.43,0.10267
4673.28,0.10061
4650.14,0.10125
4626.99,0.10197
4603.85,0.09942
4580.7,0.10075
4557.56,0.10064
4534.42,0.09957
4511.27,0.09987
4488.13,0.09989
4464.98,0.09997
4441.84,0.09788
4418.69,0.09646
4395.55,0.09285
4372.4,0.08797
4349.26,0.08137
4326.11,0.06659
4302.97,0.08498
4279.82,0.08431
4256.68,0.07347
4233.54,0.08094
4210.39,0.08005
4187.25,0.07577
4164.1,0.07658
4140.96,0.07790
4117.81,0.07788
4094.67,0.07833
4071.52,0.08303
4048.38,0.08505
4025.23,0.08586
4002.09,0.09065
3978.94,0.08920
3955.8,0.09045
3932.66,0.08935
3909.51,0.08878
3886.37,0.08949
3863.22,0.09070
3840.08,0.09094
3816.93,0.09049
3793.79,0.09293
3770.64,0.09245
3747.5,0.09335
3724.35,0.09378
3701.21,0.09148
3678.06,0.09236
3654.92,0.09136
3631.78,0.09108
3608.63,0.08620
3585.49,0.09435
3562.34,0.09531
3539.2,0.09564
3516.05,0.09613
3492.91,0.09556
3469.76,0.09568
3446.62,0.09466
3423.47,0.09353
3400.33,0.09436
3377.18,0.09347
3354.04,0.09222
3330.9,0.09315
3307.75,0.09450
3284.61,0.09405
3261.46,0.09311
3238.32,0.09329
3215.17,0.09195
3192.03,0.09095
3168.88,0.08985
3145.74,0.08851
3122.59,0.08582
3099.45,0.07968
3076.3,0.07263
3053.16,0.06796
3030.02,0.06169
3006.87,0.05796
2983.73,0.05128
2960.58,0.04684
2937.44,0.03899
2914.29,0.08823
2891.15,0.06799
2868,0.05903
2844.86,0.08430
2821.71,0.06848
2798.57,0.06700
2775.42,0.07061
2752.28,0.07366
2729.14,0.07307
2705.99,0.07522
2682.85,0.07359
2659.7,0.07254
2636.56,0.07336
2613.41,0.07733
2590.27,0.08264
2567.12,0.08814
2543.98,0.09032
2520.83,0.09072
2497.69,0.09525
2474.55,0.09610
2451.4,0.09645
2428.26,0.09689
2405.11,0.09695
2381.97,0.09523
2358.82,0.09257
2335.68,0.09055
2312.53,0.09071
2289.39,0.09441
2266.24,0.09772
2243.1,0.09591
2219.95,0.09754
2196.81,0.09998
2173.67,0.09749
2150.52,0.09669
2127.38,0.10035
2104.23,0.09876
2081.09,0.09822
2057.94,0.09887
2034.8,0.09475
2011.65,0.09394
1988.51,0.10028
1965.36,0.09925
1942.22,0.09779
1919.07,0.09871
1895.93,0.09521
1872.79,0.09767
1849.64,0.10081
1826.5,0.09946
1803.35,0.09662
1780.21,0.09839
1757.06,0.09540
1733.92,0.09046
1710.77,0.09391
1687.63,0.09684
1664.48,0.09140
1641.34,0.09375
1618.19,0.09479
1595.05,0.08860
1571.91,0.09184
1548.76,0.09278
1525.62,0.08499
1502.47,0.07569
1479.33,0.05675
1456.18,0.06073
1433.04,0.06392
1409.89,0.07957
1386.75,0.07784
1363.6,0.06977
1340.46,0.07111
1317.31,0.07502
1294.17,0.08107
1271.03,0.07504
1247.88,0.08561
1224.74,0.09627
1201.59,0.08063
1178.45,0.08606
1155.3,0.09711
1132.16,0.07954
1109.01,0.09012
1085.87,0.09892
1062.72,0.07866
1039.58,0.09570
1016.43,0.10363
993.29,0.07927
970.145,0.10116
947,0.10629
923.856,0.07364
900.711,0.10544
877.567,0.10515
854.422,0.06916
831.277,0.10904
808.133,0.10353
784.988,0.06097
761.844,0.09409
738.699,0.08397
715.554,0.06719
692.41,0.11690
669.265,0.06199
646.12,0.09754
622.976,0.13791
599.831,0.06049

File: PEVA_0.10_IS_S_240808_R4.dpt
7496.93,0.08755
7473.78,0.09693
7450.64,0.10061
7427.49,0.10631
7404.35,0.10069
7381.2,0.08846
7358.06,0.09655
7334.91,0.09996
7311.77,0.08675
7288.62,0.09233
7265.48,0.09294
7242.34,0.09850
7219.19,0.08265
7196.05,0.09171
7172.9,0.10778
7149.76,0.08535
7126.61,0.09818
7103.47,0.08889
7080.32,0.09641
7057.18,0.09862
7034.03,0.09203
7010.89,0.09569
6987.74,0.10116
6964.6,0.09726
6941.46,0.09542
6918.31,0.09976
6895.17,0.09785
6872.02,0.09551
6848.88,0.09540
6825.73,0.09600
6802.59,0.09447
6779.44,0.09383
6756.3,0.10263
6733.15,0.09494
6710.01,0.09837
6686.86,0.09569
6663.72,0.10265
6640.58,0.10074
6617.43,0.09224
6594.29,0.09644
6571.14,0.09703
6548,0.09715
6524.85,0.09794
6501.71,0.10106
6478.56,0.09447
6455.42,0.10001
6432.27,0.09662
6409.13,0.09878
6385.98,0.09914
6362.84,0.09979
6339.7,0.10190
6316.55,0.09808
6293.41,0.09981
6270.26,0.09771
6247.12,0.09594
6223.97,0.09842
6200.83,0.09456
6177.68,0.09294
6154.54,0.09613
6131.39,0.09600
6108.25,0.09938
6085.1,0.09406
6061.96,0.10068
6038.82,0.09586
6015.67,0.09853
5992.53,0.09789
5969.38,0.10002
5946.24,0.09467
5923.09,0.09561
5899.95,0.09743
5876.8,0.09387
5853.66,0.09375
5830.51,0.09213
5807.37,0.08613
5784.22,0.08786
5761.08,0.08939
5737.94,0.09087
5714.79,0.09549
5691.65,0.09416
5668.5,0.08872
5645.36,0.09350
5622.21,0.09238
5599.07,0.09378
5575.92,0.09542
5552.78,0.09492
5529.63,0.09547
5506.49,0.09492
5483.34,0.09685
5460.2,0.09558
5437.06,0.09512
5413.91,0.09695
5390.77,0.09553
5367.62,0.09911
5344.48,0.09943
5321.33,0.09587
5298.19,0.09793
5275.04,0.09707
5251.9,0.09711
5228.75,0.09732
5205.61,0.09757
5182.46,0.09678
5159.32,0.09819
5136.18,0.09768
5113.03,0.09759
5089.89,0.09854
5066.74,0.09756
5043.6,0.09823
5020.45,0.09855
4997.31,0.09710
4974.16,0.09809
4951.02,0.09747
4927.87,0.09716
4904.73,0.09982
4881.58,0.09856
4858.44,0.09783
4835.3,0.10043
4812.15,0.09892
4789.01,0.09869
4765.86,0.09936
4742.72,0.09989
4719.57,0.09935
4696.43,0.10001
4673.28,0.10080
4650.14,0.09832
4626.99,0.10157
4603.85,0.09970
4580.7,0.09823
4557.56,0.10082
4534.42,0.09881
4511.27,0.09881
4488.13,0.09985
4464.98,0.09835
4441.84,0.09679
4418.69,0.09740
4395.55,0.09237
4372.4,0.08782
4349.26,0.08128
4326.11,0.06634
4302.97,0.08436
4279.82,0.08379
4256.68,0.07144
4233.54,0.08112
4210.39,0.07899
4187.25,0.07413
4164.1,0.07693
4140.96,0.07723
4117.81,0.07701
4094.67,0.07771
4071.52,0.08316
4048.38,0.08371
4025.23,0.08672
4002.09,0.08890
3978.94,0.08832
3955.8,0.09067
3932.66,0.08877
3909.51,0.08835
3886.37,0.09026
3863.22,0.08892
3840.08,0.08978
3816.93,0.09144
3793.79,0.09133
3770.64,0.09225
3747.5,0.09290
3724.35,0.09114
3701.21,0.09287
3678.06,0.09234
3654.92,0.08975
3631.78,0.09039
3608.63,0.08545
3585.49,0.09189
3562.34,0.09529
3539.2,0.09613
3516.05,0.09452
3492.91,0.09587
3469.76,0.09527
3446.62,0.09214
3423.47,0.09404
3400.33,0.09310
3377.18,0.09077
3354.04,0.09383
3330.9,0.09272
3307.75,0.09158
3284.61,0.09407
3261.46,0.09398
3238.32,0.09169
3215.17,0.09221
3192.03,0.09170
3168.88,0.08953
3145.74,0.08600
3122.59,0.08506
3099.45,0.08055
3076.3,0.07345
3053.16,0.06720
3030.02,0.06135
3006.87,0.05714
2983.73,0.05149
2960.58,0.04676
2937.44,0.03856
2914.29,0.08773
2891.15,0.06822
2868,0.05851
2844.86,0.08375
2821.71,0.06784
2798.57,0.06660
2775.42,0.06960
2752.28,0.07288
2729.14,0.07223
2705.99,0.07404
2682.85,0.07388
2659.7,0.07341
2636.56,0.07287
2613.41,0.07664
2590.27,0.08244
2567.12,0.08809
2543.98,0.08888
2520.83,0.09120
2497.69,0.09596
2474.55,0.09486
2451.4,0.09578
2428.26,0.09778
2405.11,0.09557
2381.97,0.09399
2358.82,0.09425
2335.68,0.08895
2312.53,0.09038
2289.39,0.09634
2266.24,0.09578
2243.1,0.09499
2219.95,0.10046
2196.81,0.09719
2173.67,0.09605
2150.52,0.09939
2127.38,0.09713
2104.23,0.09758
2081.09,0.10203
2057.94,0.09459
2034.8,0.09402
2011.65,0.09814
1988.51,0.09466
1965.36,0.09920
1942.22,0.10182
1919.07,0.09265
1895.93,0.09725
1872.79,0.10172
1849.64,0.09305
1826.5,0.10236
1803.35,0.09916
1780.21,0.09032
1757.06,0.09981
1733.92,0.09265
1710.77,0.08668
1687.63,0.10349
1664.48,0.09161
1641.34,0.08568
1618.19,0.10145
1595.05,0.08844
1571.91,0.08369
1548.76,0.09850
1525.62,0.08604
1502.47,0.07039
1479.33,0.05648
1456.18,0.06057
1433.04,0.06418
1409.89,0.07505
1386.75,0.07242
1363.6,0.07305
1340.46,0.06824
1317.31,0.07148
1294.17,0.08476
1271.03,0.07265
1247.88,0.08247
1224.74,0.10066
1201.59,0.07778
1178.45,0.08513
1155.3,0.09987
1132.16,0.07751
1109.01,0.08931
1085.87,0.09965
1062.72,0.07807
1039.58,0.09497
1016.43,0.10316
993.29,0.07933
970.145,0.09935
947,0.10673
923.856,0.07412
900.711,0.10222
877.567,0.10698
854.422,0.07104
831.277,0.10376
808.133,0.10628
784.988,0.06260
761.844,0.08843
738.699,0.08112
715.554,0.06803
692.41,0.11637
669.265,0.06739
646.12,0.08862
622.976,0.13982
599.831,0.06988

File: PEVA_0.10_IS_S_240808_R5.dpt
7496.93,0.10093
7473.78,0.09944
7450.64,0.08128
7427.49,0.10040
7404.35,0.08348
7381.2,0.09597
7358.06,0.09296
7334.91,0.10744
7311.77,0.09950
7288.62,0.09808
7265.48,0.10908
7242.34,0.10016
7219.19,0.09681
7196.05,0.10154
7172.9,0.10103
7149.76,0.10067
7126.61,0.09757
7103.47,0.10060
7080.32,0.09667
7057.18,0.09252
7034.03,0.10099
7010.89,0.09751
6987.74,0.09499
6964.6,0.09723
6941.46,0.09622
6918.31,0.09301
6895.17,0.09547
6872.02,0.10285
6848.88,0.10103
6825.73,0.10386
6802.59,0.10334
6779.44,0.09225
6756.3,0.10491
6733.15,0.09530
6710.01,0.09475
6686.86,0.09570
6663.72,0.09292
6640.58,0.10000
6617.43,0.09443
6594.29,0.09493
6571.14,0.09747
6548,0.10041
6524.85,0.09589
6501.71,0.09726
6478.56,0.10094
6455.42,0.09745
6432.27,0.09458
6409.13,0.09742
6385.98,0.09712
6362.84,0.09852
6339.7,0.09848
6316.55,0.09927
6293.41,0.09452
6270.26,0.09288
6247.12,0.09612
6223.97,0.09893
6200.83,0.09764
6177.68,0.09532
6154.54,0.09551
6131.39,0.10264
6108.25,0.09823
6085.1,0.10069
6061.96,0.09637
6038.82,0.09579
6015.67,0.09973
5992.53,0.09453
5969.38,0.09429
5946.24,0.09620
5923.09,0.10004
5899.95,0.09489
5876.8,0.09609
5853.66,0.09739
5830.51,0.09114
5807.37,0.08902
5784.22,0.08622
5761.08,0.09064
5737.94,0.09321
5714.79,0.09370
5691.65,0.09399
5668.5,0.08987
5645.36,0.09250
5622.21,0.09325
5599.07,0.09648
5575.92,0.09696
5552.78,0.09383
5529.63,0.09714
5506.49,0.09659
5483.34,0.09693
5460.2,0.09960
5437.06,0.09477
5413.91,0.09584
5390.77,0.09929
5367.62,0.09640
5344.48,0.09666
5321.33,0.09822
5298.19,0.09819
5275.04,0.09753
5251.9,0.09779
5228.75,0.09771
5205.61,0.09847
5182.46,0.09854
5159.32,0.09670
5136.18,0.09841
5113.03,0.09879
5089.89,0.09865
5066.74,0.09977
5043.6,0.09936
5020.45,0.09898
4997.31,0.09877
4974.16,0.10037
4951.02,0.09882
4927.87,0.09928
4904.73,0.09944
4881.58,0.09874
4858.44,0.10027
4835.3,0.10009
4812.15,0.09798
4789.01,0.10135
4765.86,0.10038
4742.72,0.09906
4719.57,0.10081
4696.43,0.10081
4673.28,0.09849
4650.14,0.10273
4626.99,0.10058
4603.85,0.09935
4580.7,0.10268
4557.56,0.10059
4534.42,0.09838
4511.27,0.10108
4488.13,0.09851
4464.98,0.09828
4441.84,0.09933
4418.69,0.09652
4395.55,0.09161
4372.4,0.09019
4349.26,0.08087
4326.11,0.06581
4302.97,0.08580
4279.82,0.08283
4256.68,0.07229
4233.54,0.08218
4210.39,0.07851
4187.25,0.07699
4164.1,0.07779
4140.96,0.07533
4117.81,0.07910
4094.67,0.07952
4071.52,0.08204
4048.38,0.08566
4025.23,0.08730
4002.09,0.08793
3978.94,0.09097
3955.8,0.09047
3932.66,0.08633
3909.51,0.09024
3886.37,0.09013
3863.22,0.08799
3840.08,0.09201
3816.93,0.09131
3793.79,0.09049
3770.64,0.09531
3747.5,0.09356
3724.35,0.09178
3701.21,0.09470
3678.06,0.09185
3654.92,0.08842
3631.78,0.09199
3608.63,0.08577
3585.49,0.09100
3562.34,0.09654
3539.2,0.09563
3516.05,0.09401
3492.91,0.09803
3469.76,0.09554
3446.62,0.09249
3423.47,0.09597
3400.33,0.09384
3377.18,0.09148
3354.04,0.09443
3330.9,0.09479
3307.75,0.09137
3284.61,0.09448
3261.46,0.09543
3238.32,0.09168
3215.17,0.09083
3192.03,0.09234
3168.88,0.09085
3145.74,0.08686
3122.59,0.08482
3099.45,0.08084
3076.3,0.07361
3053.16,0.06904
3030.02,0.06211
3006.87,0.05781
2983.73,0.05133
2960.58,0.04694
2937.44,0.03837
2914.29,0.08823
2891.15,0.06869
2868,0.05897
2844.86,0.08391
2821.71,0.06831
2798.57,0.06677
2775.42,0.07157
2752.28,0.07437
2729.14,0.07404
2705.99,0.07514
2682.85,0.07345
2659.7,0.07289
2636.56,0.07397
2613.41,0.07812
2590.27,0.08153
2567.12,0.08846
2543.98,0.09101
2520.83,0.09048
2497.69,0.09370
2474.55,0.09747
2451.4,0.09686
2428.26,0.09530
2405.11,0.09790
2381.97,0.09664
2358.82,0.09184
2335.68,0.09005
2312.53,0.09270
2289.39,0.09265
2266.24,0.09782
2243.1,0.09760
2219.95,0.09607
2196.81,0.09941
2173.67,0.09921
2150.52,0.09499
2127.38,0.10012
2104.23,0.10094
2081.09,0.09654
2057.94,0.09864
2034.8,0.09632
2011.65,0.09303
1988.51,0.09976
1965.36,0.10066
1942.22,0.09681
1919.07,0.09829
1895.93,0.09647
1872.79,0.09745
1849.64,0.10016
1826.5,0.10055
1803.35,0.09631
1780.21,0.09738
1757.06,0.09565
1733.92,0.09126
1710.77,0.09246
1687.63,0.09802
1664.48,0.09326
1641.34,0.09102
1618.19,0.09560
1595.05,0.09095
1571.91,0.08843
1548.76,0.09253
1525.62,0.08734
1502.47,0.07646
1479.33,0.05742
1456.18,0.06079
1433.04,0.06590
1409.89,0.08215
1386.75,0.07430
1363.6,0.07109
1340.46,0.07438
1317.31,0.07022
1294.17,0.08273
1271.03,0.07968
1247.88,0.07709
1224.74,0.10001
1201.59,0.08573
1178.45,0.07721
1155.3,0.10293
1132.16,0.08201
1109.01,0.08131
1085.87,0.10550
1062.72,0.07895
1039.58,0.08792
1016.43,0.11265
993.29,0.07654
970.145,0.09338
947,0.11771
923.856,0.06824
900.711,0.10015
877.567,0.11712
854.422,0.06356
831.277,0.10487
808.133,0.11504
784.988,0.05432
761.844,0.08947
738.699,0.08553
715.554,0.06971
692.41,0.12567
669.265,0.06022
646.12,0.08575
622.976,0.14819
599.831,0.06135