Folder: fsri_materials_database/01_Data/PEVA/FTIR/IS (part 7)

File: PEVA_0.10_IS_Trans_S_240819_R9.dpt
7496.91,0.93029
7473.76,0.93119
7450.62,0.94604
7427.47,0.94318
7404.33,0.94492
7381.18,0.92489
7358.04,0.92639
7334.89,0.92181
7311.75,0.93472
7288.61,0.92047
7265.46,0.91783
7242.32,0.91483
7219.17,0.91428
7196.03,0.92315
7172.88,0.91497
7149.74,0.93933
7126.59,0.92358
7103.45,0.93176
7080.3,0.93050
7057.16,0.91647
7034.02,0.93742
7010.87,0.92578
6987.73,0.93176
6964.58,0.92919
6941.44,0.92920
6918.29,0.93839
6895.15,0.93514
6872,0.93309
6848.86,0.92968
6825.71,0.93156
6802.57,0.93312
6779.43,0.92625
6756.28,0.93191
6733.14,0.93152
6709.99,0.93063
6686.85,0.93803
6663.7,0.92736
6640.56,0.93688
6617.41,0.93270
6594.27,0.92938
6571.12,0.93918
6547.98,0.93616
6524.84,0.93418
6501.69,0.94490
6478.55,0.93189
6455.4,0.93461
6432.26,0.93410
6409.11,0.93897
6385.97,0.93332
6362.82,0.93606
6339.68,0.93465
6316.53,0.93908
6293.39,0.93570
6270.24,0.92988
6247.1,0.93175
6223.96,0.93616
6200.81,0.93520
6177.67,0.94012
6154.52,0.93192
6131.38,0.93767
6108.23,0.92966
6085.09,0.93411
6061.94,0.93038
6038.8,0.93038
6015.65,0.92480
5992.51,0.93272
5969.37,0.92215
5946.22,0.92019
5923.08,0.92067
5899.93,0.91385
5876.79,0.90701
5853.64,0.89237
5830.5,0.86453
5807.35,0.84211
5784.21,0.78852
5761.06,0.82487
5737.92,0.87381
5714.78,0.88858
5691.63,0.87373
5668.49,0.85197
5645.34,0.87948
5622.2,0.89186
5599.05,0.89858
5575.91,0.89982
5552.76,0.89050
5529.62,0.89748
5506.47,0.89099
5483.33,0.89433
5460.19,0.89016
5437.04,0.89460
5413.9,0.88671
5390.75,0.90540
5367.61,0.91038
5344.46,0.89199
5321.32,0.91352
5298.17,0.91155
5275.03,0.91197
5251.88,0.90737
5228.74,0.90756
5205.6,0.89818
5182.45,0.91257
5159.31,0.91127
5136.16,0.91594
5113.02,0.91767
5089.87,0.91713
5066.73,0.91733
5043.58,0.91991
5020.44,0.91780
4997.29,0.91872
4974.15,0.91523
4951.01,0.91634
4927.86,0.91879
4904.72,0.91830
4881.57,0.91687
4858.43,0.91913
4835.28,0.92274
4812.14,0.92126
4788.99,0.92341
4765.85,0.92501
4742.7,0.92334
4719.56,0.92688
4696.42,0.92705
4673.27,0.92351
4650.13,0.92706
4626.98,0.92449
4603.84,0.92470
4580.69,0.92628
4557.55,0.92206
4534.4,0.91995
4511.26,0.91989
4488.11,0.91324
4464.97,0.90733
4441.83,0.89899
4418.68,0.87942
4395.54,0.83777
4372.39,0.78391
4349.25,0.67009
4326.1,0.40199
4302.96,0.72140
4279.81,0.70902
4256.67,0.53147
4233.52,0.67164
4210.38,0.64018
4187.24,0.58506
4164.09,0.59513
4140.95,0.60455
4117.8,0.61818
4094.66,0.62092
4071.51,0.69630
4048.37,0.72928
4025.22,0.74134
4002.08,0.78503
3978.93,0.78425
3955.79,0.79281
3932.65,0.77270
3909.5,0.77616
3886.36,0.76496
3863.21,0.76628
3840.07,0.75960
3816.92,0.76944
3793.78,0.81380
3770.63,0.81319
3747.49,0.78099
3724.34,0.80134
3701.2,0.80944
3678.06,0.79058
3654.91,0.78901
3631.77,0.78772
3608.62,0.73635
3585.48,0.83397
3562.33,0.86524
3539.19,0.88699
3516.04,0.89256
3492.9,0.88872
3469.75,0.88135
3446.61,0.86890
3423.47,0.87087
3400.32,0.86929
3377.18,0.86432
3354.03,0.86608
3330.89,0.87349
3307.74,0.87609
3284.6,0.87818
3261.45,0.87391
3238.31,0.87015
3215.16,0.86129
3192.02,0.84847
3168.87,0.83631
3145.73,0.82085
3122.59,0.79324
3099.44,0.72209
3076.3,0.61697
3053.15,0.54201
3030.01,0.42304
3006.86,0.31967
2983.72,0.14228
2960.57,0.00167
2937.43,0.00027
2914.28,0.00085
2891.14,0.00068
2868,0.00087
2844.85,0.00099
2821.71,0.04051
2798.56,0.17663
2775.42,0.35496
2752.27,0.43973
2729.13,0.45256
2705.98,0.50312
2682.84,0.48602
2659.69,0.46450
2636.55,0.47664
2613.41,0.56741
2590.26,0.64354
2567.12,0.71323
2543.97,0.75147
2520.83,0.77478
2497.68,0.81217
2474.54,0.82305
2451.39,0.84846
2428.25,0.83945
2405.1,0.83559
2381.96,0.82140
2358.82,0.68920
2335.67,0.67849
2312.53,0.75163
2289.38,0.81466
2266.24,0.84124
2243.09,0.85349
2219.95,0.86556
2196.8,0.87055
2173.66,0.87302
2150.51,0.85478
2127.37,0.88095
2104.23,0.89149
2081.08,0.87668
2057.94,0.86675
2034.79,0.84336
2011.65,0.83268
1988.5,0.88197
1965.36,0.88818
1942.21,0.86693
1919.07,0.86439
1895.92,0.84552
1872.78,0.87817
1849.64,0.89353
1826.49,0.88189
1803.35,0.86746
1780.2,0.87371
1757.06,0.84078
1733.91,0.77508
1710.77,0.78380
1687.62,0.83992
1664.48,0.83590
1641.33,0.83041
1618.19,0.82377
1595.05,0.81107
1571.9,0.80884
1548.76,0.79543
1525.61,0.73133
1502.47,0.66740
1479.32,0.28228
1456.18,0.01979
1433.03,0.30685
1409.89,0.69789
1386.74,0.65509
1363.6,0.40865
1340.46,0.58084
1317.31,0.60970
1294.17,0.58855
1271.02,0.65815
1247.88,0.71943
1224.73,0.75337
1201.59,0.75482
1178.44,0.74584
1155.3,0.74959
1132.15,0.76728
1109.01,0.76569
1085.87,0.72853
1062.72,0.75552
1039.58,0.77171
1016.43,0.71821
993.287,0.81955
970.142,0.80234
946.998,0.83687
923.853,0.84450
900.709,0.82788
877.564,0.85272
854.42,0.85296
831.275,0.82499
808.131,0.83246
784.986,0.78048
761.842,0.71437
738.697,0.50932
715.552,0.13271
692.408,0.79944
669.263,0.83656
646.119,0.87048
622.974,0.89604
599.83,0.94302

File: PEVA_0.10_IS_Trans_S_240819_R10.dpt
7496.91,0.93712
7473.76,0.94876
7450.62,0.92194
7427.47,0.94584
7404.33,0.91929
7381.18,0.91976
7358.04,0.92867
7334.89,0.93167
7311.75,0.92499
7288.61,0.92043
7265.46,0.92951
7242.32,0.91312
7219.17,0.91146
7196.03,0.91615
7172.88,0.93001
7149.74,0.93166
7126.59,0.92953
7103.45,0.92530
7080.3,0.92222
7057.16,0.91578
7034.02,0.92389
7010.87,0.93288
6987.73,0.92490
6964.58,0.93292
6941.44,0.92180
6918.29,0.92473
6895.15,0.93046
6872,0.93340
6848.86,0.93770
6825.71,0.92812
6802.57,0.93970
6779.43,0.93692
6756.28,0.93617
6733.14,0.94309
6709.99,0.93485
6686.85,0.94549
6663.7,0.93947
6640.56,0.94453
6617.41,0.93017
6594.27,0.94911
6571.12,0.94118
6547.98,0.93822
6524.84,0.94384
6501.69,0.93928
6478.55,0.93912
6455.4,0.93402
6432.26,0.94630
6409.11,0.93594
6385.97,0.93884
6362.82,0.94004
6339.68,0.93679
6316.53,0.94790
6293.39,0.93743
6270.24,0.93706
6247.1,0.94466
6223.96,0.93742
6200.81,0.93928
6177.67,0.94510
6154.52,0.93879
6131.38,0.93503
6108.23,0.94077
6085.09,0.94013
6061.94,0.93520
6038.8,0.93648
6015.65,0.93428
5992.51,0.92779
5969.37,0.92959
5946.22,0.92826
5923.08,0.92657
5899.93,0.92211
5876.79,0.91475
5853.64,0.89556
5830.5,0.87258
5807.35,0.84705
5784.21,0.79707
5761.06,0.82726
5737.92,0.87672
5714.78,0.89196
5691.63,0.88159
5668.49,0.85796
5645.34,0.88259
5622.2,0.89656
5599.05,0.90330
5575.91,0.90023
5552.76,0.90005
5529.62,0.89479
5506.47,0.89173
5483.33,0.89948
5460.19,0.88966
5437.04,0.89494
5413.9,0.88778
5390.75,0.90493
5367.61,0.91262
5344.46,0.89251
5321.32,0.91436
5298.17,0.91614
5275.03,0.91906
5251.88,0.91079
5228.74,0.90636
5205.6,0.90181
5182.45,0.91435
5159.31,0.91331
5136.16,0.92147
5113.02,0.92012
5089.87,0.92161
5066.73,0.92234
5043.58,0.92224
5020.44,0.92239
4997.29,0.92128
4974.15,0.91962
4951.01,0.92201
4927.86,0.92262
4904.72,0.92307
4881.57,0.92100
4858.43,0.92381
4835.28,0.92499
4812.14,0.92721
4788.99,0.92972
4765.85,0.92880
4742.7,0.92873
4719.56,0.93201
4696.42,0.92930
4673.27,0.92874
4650.13,0.92996
4626.98,0.92935
4603.84,0.92971
4580.69,0.93018
4557.55,0.92704
4534.4,0.92485
4511.26,0.92231
4488.11,0.91775
4464.97,0.91125
4441.83,0.90185
4418.68,0.88303
4395.54,0.84036
4372.39,0.78631
4349.25,0.67257
4326.1,0.40269
4302.96,0.72295
4279.81,0.71285
4256.67,0.53042
4233.52,0.67377
4210.38,0.64268
4187.24,0.58683
4164.09,0.59639
4140.95,0.60589
4117.8,0.61907
4094.66,0.62369
4071.51,0.69878
4048.37,0.73072
4025.22,0.74419
4002.08,0.78849
3978.93,0.78458
3955.79,0.79480
3932.65,0.77037
3909.5,0.77681
3886.36,0.76106
3863.21,0.75809
3840.07,0.74421
3816.92,0.76003
3793.78,0.81359
3770.63,0.80789
3747.49,0.76411
3724.34,0.79209
3701.2,0.80518
3678.06,0.78022
3654.91,0.78302
3631.77,0.77889
3608.62,0.72924
3585.48,0.82726
3562.33,0.85904
3539.19,0.89027
3516.04,0.89559
3492.9,0.88913
3469.75,0.88402
3446.61,0.86967
3423.47,0.87068
3400.32,0.87203
3377.18,0.86829
3354.03,0.86818
3330.89,0.87509
3307.74,0.87966
3284.6,0.87919
3261.45,0.87494
3238.31,0.87391
3215.16,0.86248
3192.02,0.84958
3168.87,0.83894
3145.73,0.82515
3122.59,0.79561
3099.44,0.72246
3076.3,0.61675
3053.15,0.54202
3030.01,0.42197
3006.86,0.31863
2983.72,0.14118
2960.57,0.00092
2937.43,0.00075
2914.28,0.00119
2891.14,0.00075
2868,0.00112
2844.85,0.00084
2821.71,0.03945
2798.56,0.17576
2775.42,0.35418
2752.27,0.43916
2729.13,0.45206
2705.98,0.50318
2682.84,0.48717
2659.69,0.46513
2636.55,0.47645
2613.41,0.56820
2590.26,0.64546
2567.12,0.71409
2543.97,0.75171
2520.83,0.77830
2497.68,0.81601
2474.54,0.82389
2451.39,0.85150
2428.25,0.84414
2405.1,0.83601
2381.96,0.82104
2358.82,0.67492
2335.67,0.66431
2312.53,0.74658
2289.38,0.81906
2266.24,0.84189
2243.09,0.85472
2219.95,0.87181
2196.8,0.87117
2173.66,0.87541
2150.51,0.86143
2127.37,0.88150
2104.23,0.89323
2081.08,0.88442
2057.94,0.86596
2034.79,0.84515
2011.65,0.83885
1988.5,0.87977
1965.36,0.88851
1942.21,0.87100
1919.07,0.85831
1895.92,0.84669
1872.78,0.88445
1849.64,0.88756
1826.49,0.87874
1803.35,0.87156
1780.2,0.86338
1757.06,0.83449
1733.91,0.76381
1710.77,0.76849
1687.62,0.83285
1664.48,0.83687
1641.33,0.81834
1618.19,0.82088
1595.05,0.81733
1571.9,0.79165
1548.76,0.79085
1525.61,0.72402
1502.47,0.65893
1479.32,0.28098
1456.18,0.01938
1433.03,0.30568
1409.89,0.69802
1386.74,0.64437
1363.6,0.40764
1340.46,0.57983
1317.31,0.59977
1294.17,0.59280
1271.02,0.66049
1247.88,0.70744
1224.73,0.76276
1201.59,0.75989
1178.44,0.73238
1155.3,0.75987
1132.15,0.77122
1109.01,0.75231
1085.87,0.74137
1062.72,0.75476
1039.58,0.76004
1016.43,0.73223
993.287,0.81525
970.142,0.79289
946.998,0.85804
923.853,0.83573
900.709,0.82011
877.564,0.87543
854.42,0.84236
831.275,0.81907
808.131,0.85274
784.986,0.77183
761.842,0.70746
738.697,0.51137
715.552,0.13287
692.408,0.81787
669.263,0.83086
646.119,0.84996
622.974,0.91541
599.83,0.94758

File: PEVA_0.10_IS_Trans_T_240819_R1.dpt
7496.91,0.01413
7473.76,0.03946
7450.62,0.00936
7427.47,0.03233
7404.33,0.04131
7381.18,0.02768
7358.04,0.01242
7334.89,0.03128
7311.75,0.03583
7288.61,0.01732
7265.46,0.03178
7242.32,0.01940
7219.17,0.00623
7196.03,0.01606
7172.88,0.01033
7149.74,0.01242
7126.59,0.01281
7103.45,0.02711
7080.3,0.02817
7057.16,0.02659
7034.02,0.02317
7010.87,0.01457
6987.73,0.00578
6964.58,0.01020
6941.44,0.02472
6918.29,0.02047
6895.15,0.00945
6872,0.02933
6848.86,0.00937
6825.71,0.01415
6802.57,0.01454
6779.43,0.02154
6756.28,0.01064
6733.14,0.00869
6709.99,0.01172
6686.85,0.00456
6663.7,0.00478
6640.56,0.01789
6617.41,0.00533
6594.27,0.01575
6571.12,0.00688
6547.98,0.02090
6524.84,0.01197
6501.69,0.01936
6478.55,0.01099
6455.4,0.00427
6432.26,0.00423
6409.11,0.00454
6385.97,0.00775
6362.82,0.00969
6339.68,0.00900
6316.53,0.00979
6293.39,0.00403
6270.24,0.00547
6247.1,0.00834
6223.96,0.00363
6200.81,0.01029
6177.67,0.00038
6154.52,0.00737
6131.38,0.00708
6108.23,0.01861
6085.09,0.00586
6061.94,0.00577
6038.8,0.00792
6015.65,0.00714
5992.51,-0.00060
5969.37,0.00697
5946.22,0.00158
5923.08,0.00346
5899.93,0.01003
5876.79,0.00328
5853.64,0.00565
5830.5,0.00476
5807.35,0.00769
5784.21,0.00128
5761.06,0.00678
5737.92,0.00950
5714.78,0.00414
5691.63,0.01055
5668.49,0.00412
5645.34,0.00476
5622.2,0.00769
5599.05,0.00545
5575.91,0.00704
5552.76,0.00504
5529.62,0.00248
5506.47,0.00514
5483.33,0.00546
5460.19,0.00277
5437.04,0.00190
5413.9,0.00509
5390.75,0.00350
5367.61,0.00505
5344.46,0.00284
5321.32,0.00240
5298.17,0.00504
5275.03,0.00193
5251.88,0.00266
5228.74,0.00555
5205.6,0.00323
5182.45,0.00354
5159.31,0.00504
5136.16,0.00440
5113.02,0.00306
5089.87,0.00205
5066.73,0.00449
5043.58,0.00195
5020.44,0.00347
4997.29,0.00081
4974.15,0.00292
4951.01,0.00275
4927.86,0.00173
4904.72,0.00132
4881.57,0.00254
4858.43,0.00334
4835.28,0.00350
4812.14,0.00126
4788.99,0.00257
4765.85,0.00232
4742.7,0.00073
4719.56,0.00237
4696.42,0.00206
4673.27,0.00191
4650.13,0.00038
4626.98,0.00247
4603.84,0.00210
4580.69,0.00127
4557.55,0.00057
4534.4,0.00102
4511.26,0.00126
4488.11,0.00231
4464.97,0.00303
4441.83,0.00229
4418.68,0.00300
4395.54,0.00128
4372.39,0.00114
4349.25,0.00240
4326.1,0.00246
4302.96,0.00209
4279.81,0.00219
4256.67,0.00070
4233.52,0.00166
4210.38,0.00292
4187.24,0.00146
4164.09,0.00082
4140.95,0.00160
4117.8,0.00140
4094.66,0.00186
4071.51,0.00097
4048.37,0.00104
4025.22,0.00125
4002.08,0.00046
3978.93,0.00159
3955.79,0.00225
3932.65,-0.00008
3909.5,0.00179
3886.36,0.00287
3863.21,0.00189
3840.07,0.00078
3816.92,0.00142
3793.78,-0.00030
3770.63,0.00023
3747.49,0.00105
3724.34,0.00129
3701.2,0.00122
3678.06,0.00080
3654.91,0.00007
3631.77,0.00064
3608.62,0.00184
3585.48,0.00145
3562.33,0.00110
3539.19,0.00072
3516.04,0.00338
3492.9,0.00149
3469.75,0.00058
3446.61,0.00006
3423.47,0.00363
3400.32,0.00141
3377.18,0.00051
3354.03,0.00094
3330.89,0.00117
3307.74,0.00230
3284.6,0.00336
3261.45,0.00103
3238.31,0.00014
3215.16,0.00076
3192.02,0.00202
3168.87,0.00230
3145.73,0.00119
3122.59,0.00138
3099.44,0.00106
3076.3,0.00104
3053.15,0.00127
3030.01,-0.00017
3006.86,0.00090
2983.72,0.00122
2960.57,0.00081
2937.43,0.00062
2914.28,0.00152
2891.14,0.00028
2868,0.00058
2844.85,0.00102
2821.71,0.00076
2798.56,0.00058
2775.42,0.00068
2752.27,0.00109
2729.13,0.00123
2705.98,0.00076
2682.84,0.00111
2659.69,0.00025
2636.55,0.00048
2613.41,0.00039
2590.26,0.00022
2567.12,0.00103
2543.97,0.00090
2520.83,0.00080
2497.68,0.00174
2474.54,0.00049
2451.39,0.00072
2428.25,0.00082
2405.1,0.00018
2381.96,0.00105
2358.82,-0.00007
2335.67,0.00147
2312.53,0.00065
2289.38,0.00055
2266.24,0.00070
2243.09,0.00048
2219.95,0.00046
2196.8,0.00066
2173.66,0.00054
2150.51,0.00082
2127.37,0.00072
2104.23,0.00085
2081.08,0.00041
2057.94,0.00081
2034.79,0.00113
2011.65,0.00098
1988.5,0.00087
1965.36,0.00036
1942.21,0.00052
1919.07,-0.00002
1895.92,0.00055
1872.78,0.00117
1849.64,0.00022
1826.49,0.00050
1803.35,0.00018
1780.2,0.00087
1757.06,0.00135
1733.91,0.00063
1710.77,0.00073
1687.62,0.00007
1664.48,0.00088
1641.33,0.00036
1618.19,0.00095
1595.05,0.00039
1571.9,0.00018
1548.76,0.00034
1525.61,0.00060
1502.47,0.00114
1479.32,0.00073
1456.18,0.00129
1433.03,0.00149
1409.89,0.00001
1386.74,0.00093
1363.6,0.00065
1340.46,0.00053
1317.31,0.00054
1294.17,0.00057
1271.02,0.00038
1247.88,0.00011
1224.73,0.00060
1201.59,0.00092
1178.44,0.00071
1155.3,0.00214
1132.15,0.00098
1109.01,0.00144
1085.87,0.00049
1062.72,0.00119
1039.58,0.00047
1016.43,0.00082
993.287,0.00141
970.142,0.00063
946.998,0.00124
923.853,0.00083
900.709,0.00165
877.564,0.00125
854.42,0.00129
831.275,0.00106
808.131,0.00125
784.986,0.00228
761.842,0.00002
738.697,0.00108
715.552,0.00222
692.408,0.00164
669.263,0.00278
646.119,0.00227
622.974,0.00158
599.83,0.00409

File: PEVA_0.10_IS_Trans_T_240819_R3.dpt
7496.91,0.03452
7473.76,0.03185
7450.62,0.03540
7427.47,0.00882
7404.33,0.04255
7381.18,0.03654
7358.04,0.03356
7334.89,0.01481
7311.75,0.02417
7288.61,0.01229
7265.46,0.00952
7242.32,0.03306
7219.17,0.01510
7196.03,0.02804
7172.88,0.02574
7149.74,0.01557
7126.59,0.02250
7103.45,0.01600
7080.3,0.02316
7057.16,0.00634
7034.02,0.01633
7010.87,0.00235
6987.73,0.01731
6964.58,0.01355
6941.44,0.01564
6918.29,0.02215
6895.15,0.01993
6872,0.01518
6848.86,0.00557
6825.71,0.01753
6802.57,0.01238
6779.43,0.01012
6756.28,0.01503
6733.14,0.02376
6709.99,0.01041
6686.85,0.00734
6663.7,0.00993
6640.56,0.00648
6617.41,0.02474
6594.27,0.01369
6571.12,0.01450
6547.98,0.01122
6524.84,0.00483
6501.69,0.01065
6478.55,0.01370
6455.4,0.00248
6432.26,0.00447
6409.11,0.01142
6385.97,0.01173
6362.82,0.00518
6339.68,0.00208
6316.53,0.00713
6293.39,0.00660
6270.24,0.00388
6247.1,0.01223
6223.96,0.00491
6200.81,0.00588
6177.67,0.00566
6154.52,0.00461
6131.38,0.00675
6108.23,0.00571
6085.09,0.01128
6061.94,0.00225
6038.8,0.00243
6015.65,0.01024
5992.51,0.00822
5969.37,0.00804
5946.22,0.00805
5923.08,0.00439
5899.93,0.00842
5876.79,0.00715
5853.64,0.00162
5830.5,0.00561
5807.35,0.00478
5784.21,0.00145
5761.06,0.00620
5737.92,-0.00114
5714.78,0.00598
5691.63,0.00265
5668.49,0.00195
5645.34,0.00317
5622.2,0.00186
5599.05,0.00656
5575.91,0.00261
5552.76,0.00550
5529.62,0.00194
5506.47,0.00324
5483.33,0.00571
5460.19,0.00593
5437.04,0.00495
5413.9,0.00229
5390.75,0.00202
5367.61,0.00076
5344.46,0.00486
5321.32,0.00131
5298.17,0.00610
5275.03,0.00228
5251.88,0.00288
5228.74,0.00105
5205.6,0.00254
5182.45,0.00329
5159.31,0.00206
5136.16,0.00338
5113.02,0.00071
5089.87,0.00357
5066.73,0.00117
5043.58,0.00251
5020.44,0.00275
4997.29,0.00280
4974.15,0.00334
4951.01,0.00194
4927.86,0.00320
4904.72,0.00159
4881.57,0.00444
4858.43,0.00320
4835.28,0.00052
4812.14,0.00404
4788.99,0.00032
4765.85,0.00364
4742.7,0.00215
4719.56,0.00137
4696.42,0.00292
4673.27,0.00161
4650.13,0.00238
4626.98,0.00111
4603.84,0.00250
4580.69,0.00149
4557.55,0.00178
4534.4,0.00120
4511.26,0.00080
4488.11,0.00272
4464.97,0.00178
4441.83,0.00121
4418.68,0.00161
4395.54,0.00056
4372.39,0.00133
4349.25,0.00247
4326.1,0.00025
4302.96,0.00079
4279.81,0.00163
4256.67,-0.00030
4233.52,0.00113
4210.38,0.00122
4187.24,0.00157
4164.09,0.00190
4140.95,0.00149
4117.8,0.00092
4094.66,0.00071
4071.51,0.00148
4048.37,0.00121
4025.22,0.00050
4002.08,0.00137
3978.93,0.00011
3955.79,0.00065
3932.65,0.00108
3909.5,0.00149
3886.36,0.00216
3863.21,0.00147
3840.07,0.00190
3816.92,0.00113
3793.78,0.00131
3770.63,0.00162
3747.49,0.00310
3724.34,0.00117
3701.2,0.00029
3678.06,0.00078
3654.91,0.00250
3631.77,0.00272
3608.62,0.00191
3585.48,0.00053
3562.33,0.00241
3539.19,0.00151
3516.04,0.00076
3492.9,0.00168
3469.75,0.00227
3446.61,0.00171
3423.47,0.00040
3400.32,0.00183
3377.18,0.00109
3354.03,0.00286
3330.89,0.00241
3307.74,0.00203
3284.6,0.00206
3261.45,0.00227
3238.31,0.00188
3215.16,0.00192
3192.02,0.00119
3168.87,0.00066
3145.73,0.00192
3122.59,0.00119
3099.44,0.00094
3076.3,0.00157
3053.15,0.00144
3030.01,0.00114
3006.86,0.00149
2983.72,0.00145
2960.57,0.00076
2937.43,0.00129
2914.28,0.00135
2891.14,0.00060
2868,0.00093
2844.85,0.00017
2821.71,0.00107
2798.56,0.00060
2775.42,0.00053
2752.27,0.00085
2729.13,0.00010
2705.98,0.00034
2682.84,0.00037
2659.69,0.00007
2636.55,0.00031
2613.41,0.00121
2590.26,0.00115
2567.12,0.00043
2543.97,0.00081
2520.83,0.00042
2497.68,0.00041
2474.54,0.00119
2451.39,0.00095
2428.25,0.00098
2405.1,0.00030
2381.96,0.00088
2358.82,-0.00034
2335.67,-0.00006
2312.53,0.00092
2289.38,0.00117
2266.24,0.00020
2243.09,0.00041
2219.95,0.00028
2196.8,0.00036
2173.66,0.00061
2150.51,0.00045
2127.37,0.00056
2104.23,0.00067
2081.08,0.00016
2057.94,0.00066
2034.79,0.00011
2011.65,0.00069
1988.5,0.00083
1965.36,0.00045
1942.21,0.00079
1919.07,-0.00009
1895.92,0.00094
1872.78,0.00049
1849.64,0.00059
1826.49,0.00086
1803.35,0.00018
1780.2,0.00072
1757.06,0.00041
1733.91,0.00024
1710.77,0.00009
1687.62,0.00056
1664.48,0.00145
1641.33,0.00060
1618.19,-0.00001
1595.05,0.00087
1571.9,0.00048
1548.76,0.00061
1525.61,0.00074
1502.47,-0.00021
1479.32,0.00095
1456.18,0.00118
1433.03,0.00059
1409.89,0.00101
1386.74,0.00053
1363.6,0.00032
1340.46,0.00033
1317.31,0.00052
1294.17,0.00026
1271.02,0.00072
1247.88,0.00048
1224.73,0.00081
1201.59,0.00026
1178.44,0.00142
1155.3,0.00086
1132.15,0.00119
1109.01,0.00083
1085.87,0.00070
1062.72,0.00064
1039.58,0.00100
1016.43,0.00063
993.287,0.00092
970.142,-0.00002
946.998,0.00144
923.853,0.00125
900.709,0.00107
877.564,0.00058
854.42,0.00133
831.275,0.00052
808.131,0.00150
784.986,0.00127
761.842,0.00075
738.697,0.00144
715.552,0.00106
692.408,0.00159
669.263,0.00235
646.119,0.00009
622.974,0.00209
599.83,0.00413

File: PEVA_0.10_IS_Trans_T_240819_R6.dpt
7496.91,0.03139
7473.76,0.01266
7450.62,0.03824
7427.47,0.01226
7404.33,0.03427
7381.18,0.03013
7358.04,0.01387
7334.89,0.01945
7311.75,-0.00110
7288.61,0.02763
7265.46,0.03140
7242.32,0.01125
7219.17,0.02265
7196.03,0.02168
7172.88,0.01817
7149.74,0.01724
7126.59,0.01773
7103.45,0.01494
7080.3,0.00676
7057.16,0.00665
7034.02,0.01457
7010.87,0.01187
6987.73,0.00818
6964.58,0.01364
6941.44,0.02233
6918.29,0.02867
6895.15,0.02441
6872,0.00839
6848.86,0.00878
6825.71,0.01804
6802.57,0.01257
6779.43,0.02100
6756.28,0.01699
6733.14,0.00786
6709.99,0.01167
6686.85,0.00808
6663.7,0.01554
6640.56,0.01038
6617.41,0.00138
6594.27,0.01137
6571.12,0.01963
6547.98,0.00250
6524.84,0.01460
6501.69,0.00156
6478.55,0.00641
6455.4,0.01502
6432.26,0.00777
6409.11,0.01650
6385.97,0.01246
6362.82,0.00669
6339.68,0.01396
6316.53,0.01826
6293.39,0.00709
6270.24,0.00486
6247.1,0.00581
6223.96,0.00552
6200.81,0.00797
6177.67,0.01279
6154.52,0.00425
6131.38,0.00546
6108.23,0.00701
6085.09,0.00869
6061.94,0.00505
6038.8,0.01141
6015.65,0.00362
5992.51,0.00902
5969.37,0.00260
5946.22,0.00861
5923.08,0.00162
5899.93,0.00581
5876.79,0.00663
5853.64,0.00486
5830.5,0.00455
5807.35,0.00564
5784.21,0.00495
5761.06,0.00396
5737.92,0.00503
5714.78,0.00535
5691.63,0.00762
5668.49,-0.00008
5645.34,0.00337
5622.2,0.00105
5599.05,0.00389
5575.91,0.00556
5552.76,0.00160
5529.62,0.00288
5506.47,0.00523
5483.33,0.00366
5460.19,0.00392
5437.04,0.00559
5413.9,0.00559
5390.75,0.00294
5367.61,0.00139
5344.46,0.00510
5321.32,0.00190
5298.17,0.00186
5275.03,0.00372
5251.88,0.00504
5228.74,0.00222
5205.6,0.00294
5182.45,0.00511
5159.31,0.00327
5136.16,0.00625
5113.02,0.00200
5089.87,0.00285
5066.73,0.00297
5043.58,0.00254
5020.44,0.00294
4997.29,0.00311
4974.15,0.00298
4951.01,0.00174
4927.86,0.00268
4904.72,0.00301
4881.57,0.00206
4858.43,0.00122
4835.28,0.00375
4812.14,-0.00090
4788.99,0.00242
4765.85,0.00261
4742.7,0.00267
4719.56,0.00170
4696.42,0.00058
4673.27,0.00136
4650.13,0.00240
4626.98,0.00160
4603.84,0.00134
4580.69,0.00162
4557.55,0.00288
4534.4,0.00173
4511.26,0.00233
4488.11,0.00082
4464.97,0.00103
4441.83,0.00107
4418.68,0.00134
4395.54,0.00142
4372.39,0.00288
4349.25,0.00193
4326.1,0.00136
4302.96,0.00114
4279.81,0.00272
4256.67,0.00326
4233.52,0.00124
4210.38,0.00100
4187.24,0.00158
4164.09,0.00183
4140.95,0.00133
4117.8,0.00133
4094.66,0.00063
4071.51,0.00156
4048.37,0.00158
4025.22,0.00119
4002.08,0.00076
3978.93,0.00128
3955.79,0.00113
3932.65,0.00207
3909.5,0.00186
3886.36,0.00207
3863.21,0.00187
3840.07,0.00297
3816.92,0.00199
3793.78,0.00132
3770.63,0.00129
3747.49,0.00299
3724.34,0.00101
3701.2,0.00099
3678.06,0.00257
3654.91,0.00276
3631.77,0.00214
3608.62,0.00039
3585.48,0.00010
3562.33,0.00208
3539.19,0.00101
3516.04,0.00100
3492.9,0.00150
3469.75,-0.00037
3446.61,0.00165
3423.47,0.00056
3400.32,0.00115
3377.18,0.00076
3354.03,0.00253
3330.89,0.00263
3307.74,0.00144
3284.6,0.00042
3261.45,-0.00046
3238.31,0.00138
3215.16,0.00286
3192.02,0.00346
3168.87,0.00221
3145.73,0.00193
3122.59,0.00055
3099.44,0.00096
3076.3,0.00129
3053.15,0.00043
3030.01,0.00021
3006.86,0.00082
2983.72,0.00112
2960.57,0.00077
2937.43,0.00124
2914.28,0.00061
2891.14,0.00150
2868,0.00008
2844.85,0.00003
2821.71,0.00007
2798.56,0.00064
2775.42,0.00072
2752.27,0.00093
2729.13,0.00075
2705.98,0.00005
2682.84,0.00101
2659.69,0.00063
2636.55,0.00077
2613.41,0.00121
2590.26,0.00049
2567.12,0.00083
2543.97,0.00037
2520.83,0.00057
2497.68,0.00099
2474.54,0.00054
2451.39,0.00007
2428.25,0.00080
2405.1,0.00044
2381.96,0.00086
2358.82,0.00133
2335.67,0.00123
2312.53,0.00014
2289.38,0.00103
2266.24,0.00069
2243.09,0.00022
2219.95,0.00047
2196.8,0.00060
2173.66,0.00156
2150.51,0.00061
2127.37,0.00008
2104.23,0.00088
2081.08,0.00083
2057.94,0.00026
2034.79,0.00102
2011.65,0.00091
1988.5,0.00066
1965.36,0.00030
1942.21,0.00014
1919.07,0.00066
1895.92,0.00009
1872.78,0.00073
1849.64,0.00038
1826.49,0.00074
1803.35,0.00036
1780.2,0.00066
1757.06,0.00022
1733.91,0.00144
1710.77,0.00095
1687.62,0.00151
1664.48,0.00083
1641.33,0.00027
1618.19,0.00078
1595.05,0.00037
1571.9,0.00111
1548.76,0.00036
1525.61,0.00060
1502.47,0.00065
1479.32,0.00016
1456.18,0.00208
1433.03,0.00107
1409.89,0.00047
1386.74,0.00087
1363.6,0.00074
1340.46,0.00032
1317.31,0.00030
1294.17,0.00046
1271.02,0.00103
1247.88,0.00053
1224.73,0.00063
1201.59,0.00083
1178.44,0.00094
1155.3,0.00087
1132.15,0.00086
1109.01,0.00135
1085.87,0.00110
1062.72,0.00103
1039.58,0.00082
1016.43,0.00055
993.287,0.00080
970.142,0.00056
946.998,0.00041
923.853,0.00214
900.709,0.00144
877.564,0.00118
854.42,0.00029
831.275,0.00170
808.131,0.00184
784.986,0.00106
761.842,0.00165
738.697,0.00164
715.552,0.00117
692.408,0.00283
669.263,0.00114
646.119,0.00276
622.974,0.00574
599.83,0.00302