Folder: fsri_materials_database/01_Data/PEVA/FTIR/IS (part 4)

File: PEVA_0.10_IS_T_240808_R7.dpt
7496.93,0.03722
7473.78,0.03942
7450.64,0.01493
7427.49,0.03909
7404.35,0.03841
7381.2,0.02198
7358.06,0.04405
7334.91,0.03312
7311.77,0.03534
7288.62,0.04217
7265.48,0.03982
7242.34,0.03388
7219.19,0.03196
7196.05,0.03780
7172.9,0.02930
7149.76,0.03387
7126.61,0.04064
7103.47,0.03492
7080.32,0.03450
7057.18,0.03003
7034.03,0.03785
7010.89,0.03412
6987.74,0.03009
6964.6,0.03046
6941.46,0.03913
6918.31,0.03401
6895.17,0.03479
6872.02,0.03194
6848.88,0.03600
6825.73,0.02648
6802.59,0.03620
6779.44,0.02967
6756.3,0.03118
6733.15,0.03856
6710.01,0.02923
6686.86,0.02945
6663.72,0.03073
6640.58,0.02908
6617.43,0.03971
6594.29,0.02710
6571.14,0.03877
6548,0.02712
6524.85,0.03178
6501.71,0.03039
6478.56,0.03027
6455.42,0.03358
6432.27,0.02618
6409.13,0.02844
6385.98,0.02562
6362.84,0.03211
6339.7,0.02775
6316.55,0.03138
6293.41,0.03421
6270.26,0.02982
6247.12,0.02823
6223.97,0.02930
6200.83,0.02956
6177.68,0.02981
6154.54,0.03052
6131.39,0.02378
6108.25,0.02977
6085.1,0.02945
6061.96,0.03300
6038.82,0.02966
6015.67,0.02887
5992.53,0.03085
5969.38,0.03092
5946.24,0.02839
5923.09,0.03177
5899.95,0.03074
5876.8,0.03021
5853.66,0.03039
5830.51,0.03028
5807.37,0.02824
5784.22,0.03027
5761.08,0.03051
5737.94,0.03135
5714.79,0.03303
5691.65,0.02987
5668.5,0.02935
5645.36,0.03053
5622.21,0.02905
5599.07,0.03011
5575.92,0.02866
5552.78,0.03238
5529.63,0.03171
5506.49,0.02896
5483.34,0.03103
5460.2,0.02901
5437.06,0.02979
5413.91,0.03074
5390.77,0.03036
5367.62,0.03073
5344.48,0.02923
5321.33,0.02915
5298.19,0.02987
5275.04,0.02915
5251.9,0.03184
5228.75,0.02729
5205.61,0.03070
5182.46,0.03032
5159.32,0.02969
5136.18,0.03079
5113.03,0.02978
5089.89,0.02936
5066.74,0.02998
5043.6,0.02970
5020.45,0.02774
4997.31,0.02978
4974.16,0.03061
4951.02,0.02993
4927.87,0.02900
4904.73,0.02963
4881.58,0.02875
4858.44,0.02882
4835.3,0.03010
4812.15,0.02871
4789.01,0.02940
4765.86,0.02933
4742.72,0.03004
4719.57,0.03045
4696.43,0.02928
4673.28,0.03141
4650.14,0.03091
4626.99,0.03089
4603.85,0.02977
4580.7,0.03064
4557.56,0.02958
4534.42,0.03004
4511.27,0.02967
4488.13,0.03052
4464.98,0.03023
4441.84,0.03029
4418.69,0.02962
4395.55,0.02988
4372.4,0.02977
4349.26,0.02986
4326.11,0.02986
4302.97,0.03064
4279.82,0.03023
4256.68,0.02952
4233.54,0.02917
4210.39,0.03044
4187.25,0.03027
4164.1,0.03010
4140.96,0.02951
4117.81,0.02993
4094.67,0.03013
4071.52,0.02859
4048.38,0.03078
4025.23,0.03100
4002.09,0.02998
3978.94,0.02970
3955.8,0.02921
3932.66,0.03031
3909.51,0.02916
3886.37,0.03002
3863.22,0.03051
3840.08,0.03059
3816.93,0.02984
3793.79,0.02984
3770.64,0.02954
3747.5,0.03185
3724.35,0.02910
3701.21,0.02937
3678.06,0.03042
3654.92,0.02875
3631.78,0.02753
3608.63,0.02771
3585.49,0.02770
3562.34,0.02688
3539.2,0.02742
3516.05,0.02698
3492.91,0.02787
3469.76,0.02663
3446.62,0.02639
3423.47,0.02556
3400.33,0.02608
3377.18,0.02594
3354.04,0.02580
3330.9,0.02611
3307.75,0.02666
3284.61,0.02583
3261.46,0.02644
3238.32,0.02629
3215.17,0.02624
3192.03,0.02633
3168.88,0.02732
3145.74,0.02627
3122.59,0.02723
3099.45,0.02634
3076.3,0.02657
3053.16,0.02719
3030.02,0.02615
3006.87,0.02680
2983.73,0.02605
2960.58,0.02479
2937.44,0.02575
2914.29,0.02599
2891.15,0.02595
2868,0.02625
2844.86,0.02698
2821.71,0.02738
2798.57,0.02757
2775.42,0.02718
2752.28,0.02762
2729.14,0.02761
2705.99,0.02739
2682.85,0.02731
2659.7,0.02734
2636.56,0.02732
2613.41,0.02717
2590.27,0.02746
2567.12,0.02728
2543.98,0.02686
2520.83,0.02685
2497.69,0.02667
2474.55,0.02747
2451.4,0.02678
2428.26,0.02706
2405.11,0.02688
2381.97,0.02688
2358.82,0.02748
2335.68,0.02693
2312.53,0.02708
2289.39,0.02685
2266.24,0.02627
2243.1,0.02654
2219.95,0.02670
2196.81,0.02600
2173.67,0.02613
2150.52,0.02617
2127.38,0.02600
2104.23,0.02557
2081.09,0.02611
2057.94,0.02593
2034.8,0.02579
2011.65,0.02589
1988.51,0.02556
1965.36,0.02549
1942.22,0.02556
1919.07,0.02554
1895.93,0.02495
1872.79,0.02508
1849.64,0.02501
1826.5,0.02464
1803.35,0.02440
1780.21,0.02338
1757.06,0.02166
1733.92,0.02339
1710.77,0.02423
1687.63,0.02266
1664.48,0.02232
1641.34,0.02229
1618.19,0.02250
1595.05,0.02235
1571.91,0.02218
1548.76,0.02212
1525.62,0.02232
1502.47,0.02178
1479.33,0.02188
1456.18,0.02136
1433.04,0.02198
1409.89,0.02123
1386.75,0.02069
1363.6,0.02079
1340.46,0.02070
1317.31,0.01971
1294.17,0.02078
1271.03,0.02159
1247.88,0.02284
1224.74,0.02170
1201.59,0.02126
1178.45,0.02046
1155.3,0.01989
1132.16,0.02048
1109.01,0.02143
1085.87,0.02179
1062.72,0.02397
1039.58,0.02282
1016.43,0.02259
993.29,0.02406
970.145,0.02367
947,0.02274
923.856,0.02212
900.711,0.02228
877.567,0.02165
854.422,0.02163
831.277,0.02199
808.133,0.02054
784.988,0.02009
761.844,0.02071
738.699,0.01940
715.554,0.02037
692.41,0.01894
669.265,0.01734
646.12,0.01813
622.976,0.01834
599.831,0.01834

File: PEVA_0.10_IS_T_240808_R8.dpt
7496.93,0.03318
7473.78,0.02058
7450.64,0.03696
7427.49,0.03349
7404.35,0.04430
7381.2,0.03278
7358.06,0.04168
7334.91,0.04093
7311.77,0.02773
7288.62,0.03761
7265.48,0.03131
7242.34,0.02883
7219.19,0.02521
7196.05,0.02544
7172.9,0.03113
7149.76,0.03340
7126.61,0.03035
7103.47,0.03124
7080.32,0.03074
7057.18,0.03417
7034.03,0.03722
7010.89,0.02956
6987.74,0.03502
6964.6,0.02843
6941.46,0.03404
6918.31,0.02776
6895.17,0.03934
6872.02,0.03964
6848.88,0.03027
6825.73,0.02883
6802.59,0.03299
6779.44,0.03174
6756.3,0.03342
6733.15,0.02609
6710.01,0.03466
6686.86,0.03482
6663.72,0.03181
6640.58,0.03548
6617.43,0.03411
6594.29,0.03299
6571.14,0.02792
6548,0.02919
6524.85,0.03098
6501.71,0.03872
6478.56,0.03483
6455.42,0.03074
6432.27,0.03019
6409.13,0.02981
6385.98,0.03001
6362.84,0.03014
6339.7,0.02786
6316.55,0.03120
6293.41,0.03334
6270.26,0.03092
6247.12,0.02999
6223.97,0.03111
6200.83,0.03265
6177.68,0.03069
6154.54,0.02919
6131.39,0.03585
6108.25,0.02856
6085.1,0.03078
6061.96,0.03039
6038.82,0.02938
6015.67,0.02956
5992.53,0.03223
5969.38,0.03140
5946.24,0.03098
5923.09,0.02690
5899.95,0.02728
5876.8,0.02724
5853.66,0.02728
5830.51,0.02813
5807.37,0.02851
5784.22,0.03001
5761.08,0.02854
5737.94,0.03083
5714.79,0.03014
5691.65,0.03038
5668.5,0.03054
5645.36,0.03261
5622.21,0.02892
5599.07,0.03034
5575.92,0.03008
5552.78,0.03051
5529.63,0.03050
5506.49,0.02753
5483.34,0.02868
5460.2,0.03070
5437.06,0.03030
5413.91,0.02793
5390.77,0.02951
5367.62,0.02993
5344.48,0.02967
5321.33,0.02819
5298.19,0.02968
5275.04,0.03096
5251.9,0.03050
5228.75,0.02931
5205.61,0.02961
5182.46,0.02949
5159.32,0.03023
5136.18,0.03111
5113.03,0.02917
5089.89,0.03135
5066.74,0.02975
5043.6,0.02885
5020.45,0.03027
4997.31,0.03005
4974.16,0.03069
4951.02,0.03030
4927.87,0.02928
4904.73,0.03011
4881.58,0.03034
4858.44,0.02898
4835.3,0.02885
4812.15,0.02962
4789.01,0.02949
4765.86,0.03105
4742.72,0.02968
4719.57,0.02907
4696.43,0.02996
4673.28,0.02963
4650.14,0.02895
4626.99,0.02951
4603.85,0.02970
4580.7,0.03037
4557.56,0.02858
4534.42,0.03066
4511.27,0.02980
4488.13,0.02956
4464.98,0.03077
4441.84,0.02919
4418.69,0.02871
4395.55,0.02931
4372.4,0.02984
4349.26,0.02929
4326.11,0.02843
4302.97,0.02938
4279.82,0.02855
4256.68,0.02920
4233.54,0.02958
4210.39,0.02945
4187.25,0.02902
4164.1,0.02968
4140.96,0.03013
4117.81,0.02949
4094.67,0.02913
4071.52,0.02921
4048.38,0.02929
4025.23,0.02918
4002.09,0.02974
3978.94,0.03012
3955.8,0.02928
3932.66,0.02884
3909.51,0.02904
3886.37,0.02904
3863.22,0.02985
3840.08,0.02937
3816.93,0.02906
3793.79,0.02922
3770.64,0.02929
3747.5,0.02961
3724.35,0.02860
3701.21,0.02895
3678.06,0.02776
3654.92,0.02836
3631.78,0.02743
3608.63,0.02797
3585.49,0.02628
3562.34,0.02609
3539.2,0.02588
3516.05,0.02680
3492.91,0.02631
3469.76,0.02604
3446.62,0.02622
3423.47,0.02559
3400.33,0.02517
3377.18,0.02494
3354.04,0.02484
3330.9,0.02613
3307.75,0.02542
3284.61,0.02554
3261.46,0.02623
3238.32,0.02668
3215.17,0.02631
3192.03,0.02675
3168.88,0.02624
3145.74,0.02632
3122.59,0.02664
3099.45,0.02638
3076.3,0.02629
3053.16,0.02663
3030.02,0.02622
3006.87,0.02636
2983.73,0.02529
2960.58,0.02564
2937.44,0.02476
2914.29,0.02566
2891.15,0.02639
2868,0.02619
2844.86,0.02667
2821.71,0.02621
2798.57,0.02718
2775.42,0.02659
2752.28,0.02697
2729.14,0.02644
2705.99,0.02681
2682.85,0.02691
2659.7,0.02669
2636.56,0.02706
2613.41,0.02684
2590.27,0.02655
2567.12,0.02696
2543.98,0.02693
2520.83,0.02667
2497.69,0.02637
2474.55,0.02684
2451.4,0.02625
2428.26,0.02666
2405.11,0.02623
2381.97,0.02612
2358.82,0.02756
2335.68,0.02681
2312.53,0.02637
2289.39,0.02597
2266.24,0.02612
2243.1,0.02617
2219.95,0.02623
2196.81,0.02580
2173.67,0.02586
2150.52,0.02568
2127.38,0.02573
2104.23,0.02564
2081.09,0.02551
2057.94,0.02551
2034.8,0.02526
2011.65,0.02574
1988.51,0.02543
1965.36,0.02538
1942.22,0.02529
1919.07,0.02502
1895.93,0.02537
1872.79,0.02504
1849.64,0.02428
1826.5,0.02394
1803.35,0.02354
1780.21,0.02346
1757.06,0.02098
1733.92,0.02324
1710.77,0.02390
1687.63,0.02204
1664.48,0.02170
1641.34,0.02194
1618.19,0.02236
1595.05,0.02181
1571.91,0.02191
1548.76,0.02160
1525.62,0.02198
1502.47,0.02177
1479.33,0.02154
1456.18,0.02145
1433.04,0.02137
1409.89,0.02105
1386.75,0.02044
1363.6,0.02066
1340.46,0.02023
1317.31,0.01941
1294.17,0.02005
1271.03,0.02125
1247.88,0.02228
1224.74,0.02182
1201.59,0.02109
1178.45,0.02024
1155.3,0.01986
1132.16,0.02032
1109.01,0.02255
1085.87,0.02151
1062.72,0.02436
1039.58,0.02244
1016.43,0.02262
993.29,0.02378
970.145,0.02314
947,0.02263
923.856,0.02227
900.711,0.02199
877.567,0.02240
854.422,0.02172
831.277,0.02079
808.133,0.02055
784.988,0.02107
761.844,0.01967
738.699,0.02043
715.554,0.01894
692.41,0.01787
669.265,0.01794
646.12,0.01734
622.976,0.01951
599.831,0.01944

File: PEVA_0.10_IS_T_240808_R9.dpt
7496.93,0.03542
7473.78,0.03562
7450.64,0.02992
7427.49,0.03367
7404.35,0.02562
7381.2,0.01416
7358.06,0.04332
7334.91,0.02889
7311.77,0.03402
7288.62,0.04439
7265.48,0.03273
7242.34,0.03258
7219.19,0.03392
7196.05,0.04533
7172.9,0.04153
7149.76,0.02924
7126.61,0.03810
7103.47,0.02736
7080.32,0.03783
7057.18,0.03450
7034.03,0.02992
7010.89,0.03121
6987.74,0.04313
6964.6,0.03549
6941.46,0.02704
6918.31,0.02835
6895.17,0.03508
6872.02,0.03447
6848.88,0.02547
6825.73,0.03229
6802.59,0.03611
6779.44,0.02996
6756.3,0.03484
6733.15,0.03655
6710.01,0.03323
6686.86,0.03357
6663.72,0.02745
6640.58,0.03479
6617.43,0.02165
6594.29,0.03180
6571.14,0.03303
6548,0.02693
6524.85,0.02896
6501.71,0.02824
6478.56,0.03075
6455.42,0.03493
6432.27,0.02858
6409.13,0.03474
6385.98,0.02679
6362.84,0.03504
6339.7,0.03188
6316.55,0.02902
6293.41,0.03081
6270.26,0.03302
6247.12,0.02920
6223.97,0.03020
6200.83,0.03335
6177.68,0.03512
6154.54,0.03110
6131.39,0.02647
6108.25,0.02611
6085.1,0.03229
6061.96,0.02777
6038.82,0.02737
6015.67,0.03053
5992.53,0.02859
5969.38,0.03135
5946.24,0.03040
5923.09,0.02825
5899.95,0.03190
5876.8,0.03163
5853.66,0.02948
5830.51,0.03235
5807.37,0.02595
5784.22,0.02627
5761.08,0.02924
5737.94,0.02827
5714.79,0.02701
5691.65,0.03090
5668.5,0.02735
5645.36,0.03256
5622.21,0.03013
5599.07,0.02869
5575.92,0.03137
5552.78,0.02780
5529.63,0.03031
5506.49,0.03216
5483.34,0.03012
5460.2,0.03129
5437.06,0.03017
5413.91,0.02900
5390.77,0.03166
5367.62,0.02965
5344.48,0.03052
5321.33,0.02806
5298.19,0.03059
5275.04,0.02919
5251.9,0.03071
5228.75,0.03054
5205.61,0.03082
5182.46,0.03028
5159.32,0.02971
5136.18,0.02959
5113.03,0.02997
5089.89,0.03038
5066.74,0.03047
5043.6,0.02906
5020.45,0.02915
4997.31,0.02915
4974.16,0.02947
4951.02,0.02960
4927.87,0.02989
4904.73,0.03037
4881.58,0.02927
4858.44,0.02876
4835.3,0.03016
4812.15,0.02978
4789.01,0.03068
4765.86,0.02918
4742.72,0.03056
4719.57,0.03136
4696.43,0.02857
4673.28,0.03041
4650.14,0.03028
4626.99,0.03055
4603.85,0.02942
4580.7,0.03045
4557.56,0.02976
4534.42,0.03007
4511.27,0.02948
4488.13,0.02979
4464.98,0.03002
4441.84,0.03048
4418.69,0.02981
4395.55,0.02973
4372.4,0.02960
4349.26,0.02959
4326.11,0.03077
4302.97,0.02951
4279.82,0.02968
4256.68,0.02976
4233.54,0.03000
4210.39,0.02975
4187.25,0.02978
4164.1,0.02970
4140.96,0.03052
4117.81,0.02966
4094.67,0.03021
4071.52,0.03009
4048.38,0.02983
4025.23,0.03080
4002.09,0.03029
3978.94,0.03033
3955.8,0.03031
3932.66,0.03080
3909.51,0.03021
3886.37,0.03062
3863.22,0.03016
3840.08,0.03106
3816.93,0.03002
3793.79,0.02952
3770.64,0.02936
3747.5,0.03144
3724.35,0.02995
3701.21,0.02961
3678.06,0.02864
3654.92,0.02878
3631.78,0.02874
3608.63,0.02770
3585.49,0.02748
3562.34,0.02828
3539.2,0.02744
3516.05,0.02674
3492.91,0.02656
3469.76,0.02677
3446.62,0.02665
3423.47,0.02632
3400.33,0.02609
3377.18,0.02588
3354.04,0.02551
3330.9,0.02519
3307.75,0.02646
3284.61,0.02605
3261.46,0.02644
3238.32,0.02646
3215.17,0.02626
3192.03,0.02667
3168.88,0.02742
3145.74,0.02702
3122.59,0.02643
3099.45,0.02726
3076.3,0.02653
3053.16,0.02691
3030.02,0.02695
3006.87,0.02664
2983.73,0.02676
2960.58,0.02553
2937.44,0.02552
2914.29,0.02669
2891.15,0.02666
2868,0.02653
2844.86,0.02698
2821.71,0.02742
2798.57,0.02710
2775.42,0.02725
2752.28,0.02750
2729.14,0.02729
2705.99,0.02738
2682.85,0.02790
2659.7,0.02689
2636.56,0.02747
2613.41,0.02692
2590.27,0.02718
2567.12,0.02700
2543.98,0.02730
2520.83,0.02695
2497.69,0.02709
2474.55,0.02705
2451.4,0.02739
2428.26,0.02725
2405.11,0.02729
2381.97,0.02702
2358.82,0.02688
2335.68,0.02757
2312.53,0.02706
2289.39,0.02676
2266.24,0.02681
2243.1,0.02620
2219.95,0.02620
2196.81,0.02668
2173.67,0.02633
2150.52,0.02618
2127.38,0.02620
2104.23,0.02620
2081.09,0.02577
2057.94,0.02609
2034.8,0.02641
2011.65,0.02612
1988.51,0.02582
1965.36,0.02570
1942.22,0.02540
1919.07,0.02577
1895.93,0.02541
1872.79,0.02515
1849.64,0.02509
1826.5,0.02501
1803.35,0.02433
1780.21,0.02340
1757.06,0.02223
1733.92,0.02360
1710.77,0.02437
1687.63,0.02290
1664.48,0.02168
1641.34,0.02224
1618.19,0.02260
1595.05,0.02240
1571.91,0.02218
1548.76,0.02174
1525.62,0.02215
1502.47,0.02182
1479.33,0.02159
1456.18,0.02207
1433.04,0.02164
1409.89,0.02151
1386.75,0.02073
1363.6,0.02106
1340.46,0.02048
1317.31,0.01951
1294.17,0.02033
1271.03,0.02164
1247.88,0.02267
1224.74,0.02220
1201.59,0.02124
1178.45,0.02073
1155.3,0.02019
1132.16,0.02029
1109.01,0.02240
1085.87,0.02204
1062.72,0.02382
1039.58,0.02231
1016.43,0.02329
993.29,0.02392
970.145,0.02318
947,0.02263
923.856,0.02248
900.711,0.02206
877.567,0.02175
854.422,0.02150
831.277,0.02139
808.133,0.02091
784.988,0.02104
761.844,0.01994
738.699,0.02053
715.554,0.01982
692.41,0.01890
669.265,0.01856
646.12,0.01891
622.976,0.01780
599.831,0.02059

File: PEVA_0.10_IS_T_240808_R10.dpt
7496.93,0.03896
7473.78,0.04014
7450.64,0.03160
7427.49,0.03146
7404.35,0.03566
7381.2,0.04722
7358.06,0.04055
7334.91,0.03464
7311.77,0.02861
7288.62,0.02947
7265.48,0.03943
7242.34,0.03346
7219.19,0.03505
7196.05,0.03272
7172.9,0.03493
7149.76,0.03205
7126.61,0.03377
7103.47,0.03586
7080.32,0.03587
7057.18,0.04396
7034.03,0.02630
7010.89,0.03014
6987.74,0.03433
6964.6,0.03530
6941.46,0.03116
6918.31,0.03806
6895.17,0.03307
6872.02,0.03644
6848.88,0.02960
6825.73,0.03246
6802.59,0.03408
6779.44,0.02190
6756.3,0.03147
6733.15,0.03108
6710.01,0.03285
6686.86,0.02708
6663.72,0.03138
6640.58,0.02906
6617.43,0.03062
6594.29,0.03305
6571.14,0.03014
6548,0.03348
6524.85,0.03367
6501.71,0.03527
6478.56,0.02845
6455.42,0.03402
6432.27,0.02808
6409.13,0.03052
6385.98,0.03557
6362.84,0.02964
6339.7,0.03148
6316.55,0.03302
6293.41,0.03580
6270.26,0.02860
6247.12,0.02686
6223.97,0.03367
6200.83,0.03087
6177.68,0.02945
6154.54,0.03052
6131.39,0.02954
6108.25,0.02523
6085.1,0.03390
6061.96,0.03027
6038.82,0.03090
6015.67,0.03099
5992.53,0.03122
5969.38,0.03113
5946.24,0.03035
5923.09,0.03037
5899.95,0.02903
5876.8,0.03437
5853.66,0.03152
5830.51,0.03184
5807.37,0.02869
5784.22,0.02910
5761.08,0.02922
5737.94,0.03015
5714.79,0.02899
5691.65,0.02958
5668.5,0.02990
5645.36,0.03086
5622.21,0.03050
5599.07,0.03032
5575.92,0.03100
5552.78,0.02884
5529.63,0.02867
5506.49,0.02916
5483.34,0.02917
5460.2,0.02964
5437.06,0.02828
5413.91,0.02885
5390.77,0.03372
5367.62,0.03037
5344.48,0.02930
5321.33,0.03013
5298.19,0.02972
5275.04,0.03117
5251.9,0.02887
5228.75,0.03057
5205.61,0.02999
5182.46,0.02959
5159.32,0.02968
5136.18,0.02984
5113.03,0.03049
5089.89,0.03049
5066.74,0.02931
5043.6,0.02967
5020.45,0.02906
4997.31,0.03089
4974.16,0.03005
4951.02,0.03119
4927.87,0.02950
4904.73,0.02840
4881.58,0.02904
4858.44,0.03169
4835.3,0.02926
4812.15,0.02992
4789.01,0.02943
4765.86,0.03019
4742.72,0.02924
4719.57,0.02969
4696.43,0.02951
4673.28,0.03084
4650.14,0.02999
4626.99,0.02951
4603.85,0.02967
4580.7,0.02976
4557.56,0.02953
4534.42,0.02965
4511.27,0.02931
4488.13,0.03006
4464.98,0.03006
4441.84,0.03057
4418.69,0.02956
4395.55,0.02955
4372.4,0.02924
4349.26,0.02898
4326.11,0.02985
4302.97,0.03034
4279.82,0.02949
4256.68,0.02970
4233.54,0.02915
4210.39,0.02923
4187.25,0.02964
4164.1,0.03051
4140.96,0.03007
4117.81,0.02987
4094.67,0.02919
4071.52,0.03028
4048.38,0.02966
4025.23,0.03014
4002.09,0.02939
3978.94,0.02890
3955.8,0.02980
3932.66,0.02971
3909.51,0.02911
3886.37,0.03059
3863.22,0.02893
3840.08,0.02934
3816.93,0.02912
3793.79,0.02919
3770.64,0.03010
3747.5,0.02932
3724.35,0.03014
3701.21,0.03021
3678.06,0.02854
3654.92,0.02869
3631.78,0.02925
3608.63,0.02751
3585.49,0.02670
3562.34,0.02657
3539.2,0.02669
3516.05,0.02635
3492.91,0.02640
3469.76,0.02680
3446.62,0.02639
3423.47,0.02645
3400.33,0.02558
3377.18,0.02573
3354.04,0.02536
3330.9,0.02556
3307.75,0.02663
3284.61,0.02582
3261.46,0.02523
3238.32,0.02745
3215.17,0.02569
3192.03,0.02684
3168.88,0.02680
3145.74,0.02654
3122.59,0.02668
3099.45,0.02728
3076.3,0.02653
3053.16,0.02669
3030.02,0.02655
3006.87,0.02681
2983.73,0.02571
2960.58,0.02603
2937.44,0.02574
2914.29,0.02619
2891.15,0.02546
2868,0.02601
2844.86,0.02658
2821.71,0.02690
2798.57,0.02673
2775.42,0.02680
2752.28,0.02709
2729.14,0.02697
2705.99,0.02707
2682.85,0.02679
2659.7,0.02684
2636.56,0.02675
2613.41,0.02661
2590.27,0.02666
2567.12,0.02707
2543.98,0.02703
2520.83,0.02695
2497.69,0.02709
2474.55,0.02657
2451.4,0.02633
2428.26,0.02688
2405.11,0.02664
2381.97,0.02655
2358.82,0.02716
2335.68,0.02667
2312.53,0.02618
2289.39,0.02626
2266.24,0.02627
2243.1,0.02629
2219.95,0.02633
2196.81,0.02627
2173.67,0.02568
2150.52,0.02602
2127.38,0.02561
2104.23,0.02606
2081.09,0.02559
2057.94,0.02571
2034.8,0.02563
2011.65,0.02540
1988.51,0.02567
1965.36,0.02545
1942.22,0.02568
1919.07,0.02542
1895.93,0.02475
1872.79,0.02501
1849.64,0.02494
1826.5,0.02410
1803.35,0.02425
1780.21,0.02316
1757.06,0.02166
1733.92,0.02370
1710.77,0.02425
1687.63,0.02218
1664.48,0.02195
1641.34,0.02199
1618.19,0.02228
1595.05,0.02241
1571.91,0.02191
1548.76,0.02153
1525.62,0.02228
1502.47,0.02181
1479.33,0.02130
1456.18,0.02165
1433.04,0.02191
1409.89,0.02095
1386.75,0.02030
1363.6,0.02050
1340.46,0.01997
1317.31,0.01998
1294.17,0.02018
1271.03,0.02136
1247.88,0.02176
1224.74,0.02145
1201.59,0.02079
1178.45,0.02030
1155.3,0.01928
1132.16,0.02034
1109.01,0.02108
1085.87,0.02147
1062.72,0.02381
1039.58,0.02353
1016.43,0.02265
993.29,0.02372
970.145,0.02345
947,0.02304
923.856,0.02189
900.711,0.02125
877.567,0.02124
854.422,0.02152
831.277,0.02150
808.133,0.02116
784.988,0.02074
761.844,0.01991
738.699,0.01972
715.554,0.01832
692.41,0.01881
669.265,0.01906
646.12,0.01833
622.976,0.01701
599.831,0.01942

File: PEVA_0.10_IS_T_240808_R11.dpt
7496.93,0.05053
7473.78,0.02695
7450.64,0.04274
7427.49,0.03373
7404.35,0.03885
7381.2,0.03285
7358.06,0.03285
7334.91,0.03476
7311.77,0.03793
7288.62,0.02445
7265.48,0.03790
7242.34,0.03674
7219.19,0.04736
7196.05,0.04231
7172.9,0.03156
7149.76,0.02141
7126.61,0.03690
7103.47,0.02428
7080.32,0.02730
7057.18,0.03033
7034.03,0.02919
7010.89,0.03248
6987.74,0.03098
6964.6,0.02874
6941.46,0.03386
6918.31,0.03319
6895.17,0.03253
6872.02,0.03400
6848.88,0.02844
6825.73,0.03404
6802.59,0.03374
6779.44,0.02801
6756.3,0.03280
6733.15,0.03124
6710.01,0.02888
6686.86,0.03267
6663.72,0.03637
6640.58,0.02944
6617.43,0.02950
6594.29,0.02881
6571.14,0.02535
6548,0.03567
6524.85,0.03736
6501.71,0.02623
6478.56,0.03762
6455.42,0.02901
6432.27,0.02518
6409.13,0.02857
6385.98,0.02991
6362.84,0.03001
6339.7,0.02669
6316.55,0.03346
6293.41,0.03445
6270.26,0.03433
6247.12,0.03062
6223.97,0.03441
6200.83,0.02767
6177.68,0.03043
6154.54,0.03342
6131.39,0.02518
6108.25,0.02833
6085.1,0.02914
6061.96,0.02818
6038.82,0.02995
6015.67,0.03064
5992.53,0.02981
5969.38,0.03234
5946.24,0.02656
5923.09,0.03173
5899.95,0.02694
5876.8,0.02962
5853.66,0.02772
5830.51,0.02901
5807.37,0.03112
5784.22,0.02753
5761.08,0.02965
5737.94,0.03134
5714.79,0.02831
5691.65,0.03205
5668.5,0.03005
5645.36,0.03137
5622.21,0.03069
5599.07,0.02913
5575.92,0.03505
5552.78,0.03129
5529.63,0.03076
5506.49,0.02804
5483.34,0.02975
5460.2,0.03136
5437.06,0.02934
5413.91,0.03137
5390.77,0.03021
5367.62,0.02807
5344.48,0.02988
5321.33,0.03048
5298.19,0.02941
5275.04,0.02966
5251.9,0.03118
5228.75,0.03219
5205.61,0.02953
5182.46,0.02953
5159.32,0.03010
5136.18,0.02842
5113.03,0.03058
5089.89,0.02877
5066.74,0.02967
5043.6,0.03028
5020.45,0.03031
4997.31,0.03041
4974.16,0.02958
4951.02,0.03009
4927.87,0.02995
4904.73,0.03055
4881.58,0.02989
4858.44,0.02971
4835.3,0.02969
4812.15,0.02900
4789.01,0.02967
4765.86,0.02988
4742.72,0.03022
4719.57,0.03024
4696.43,0.02950
4673.28,0.03083
4650.14,0.02967
4626.99,0.02944
4603.85,0.03030
4580.7,0.02995
4557.56,0.02950
4534.42,0.02914
4511.27,0.02904
4488.13,0.02947
4464.98,0.02965
4441.84,0.02990
4418.69,0.02967
4395.55,0.02968
4372.4,0.02936
4349.26,0.02878
4326.11,0.02968
4302.97,0.02942
4279.82,0.02975
4256.68,0.02937
4233.54,0.02907
4210.39,0.02974
4187.25,0.03009
4164.1,0.02999
4140.96,0.02983
4117.81,0.02931
4094.67,0.02939
4071.52,0.03012
4048.38,0.02984
4025.23,0.03033
4002.09,0.02993
3978.94,0.02949
3955.8,0.02967
3932.66,0.02882
3909.51,0.03019
3886.37,0.02922
3863.22,0.02953
3840.08,0.02923
3816.93,0.02884
3793.79,0.02927
3770.64,0.02955
3747.5,0.02900
3724.35,0.02909
3701.21,0.02890
3678.06,0.02918
3654.92,0.02795
3631.78,0.02757
3608.63,0.02824
3585.49,0.02749
3562.34,0.02640
3539.2,0.02602
3516.05,0.02732
3492.91,0.02656
3469.76,0.02660
3446.62,0.02599
3423.47,0.02614
3400.33,0.02634
3377.18,0.02560
3354.04,0.02622
3330.9,0.02618
3307.75,0.02595
3284.61,0.02578
3261.46,0.02603
3238.32,0.02674
3215.17,0.02655
3192.03,0.02627
3168.88,0.02652
3145.74,0.02596
3122.59,0.02684
3099.45,0.02695
3076.3,0.02669
3053.16,0.02689
3030.02,0.02670
3006.87,0.02614
2983.73,0.02590
2960.58,0.02505
2937.44,0.02537
2914.29,0.02613
2891.15,0.02605
2868,0.02596
2844.86,0.02670
2821.71,0.02689
2798.57,0.02688
2775.42,0.02723
2752.28,0.02661
2729.14,0.02743
2705.99,0.02717
2682.85,0.02715
2659.7,0.02647
2636.56,0.02682
2613.41,0.02682
2590.27,0.02627
2567.12,0.02718
2543.98,0.02652
2520.83,0.02659
2497.69,0.02691
2474.55,0.02685
2451.4,0.02645
2428.26,0.02643
2405.11,0.02734
2381.97,0.02657
2358.82,0.02712
2335.68,0.02682
2312.53,0.02657
2289.39,0.02634
2266.24,0.02647
2243.1,0.02620
2219.95,0.02608
2196.81,0.02622
2173.67,0.02609
2150.52,0.02606
2127.38,0.02559
2104.23,0.02601
2081.09,0.02574
2057.94,0.02562
2034.8,0.02580
2011.65,0.02548
1988.51,0.02544
1965.36,0.02553
1942.22,0.02560
1919.07,0.02535
1895.93,0.02507
1872.79,0.02487
1849.64,0.02457
1826.5,0.02429
1803.35,0.02374
1780.21,0.02303
1757.06,0.02136
1733.92,0.02341
1710.77,0.02364
1687.63,0.02263
1664.48,0.02143
1641.34,0.02156
1618.19,0.02233
1595.05,0.02168
1571.91,0.02158
1548.76,0.02149
1525.62,0.02166
1502.47,0.02174
1479.33,0.02179
1456.18,0.02082
1433.04,0.02135
1409.89,0.02073
1386.75,0.02060
1363.6,0.02052
1340.46,0.02046
1317.31,0.01914
1294.17,0.02021
1271.03,0.02110
1247.88,0.02216
1224.74,0.02157
1201.59,0.02088
1178.45,0.02022
1155.3,0.02022
1132.16,0.02040
1109.01,0.02129
1085.87,0.02134
1062.72,0.02464
1039.58,0.02317
1016.43,0.02297
993.29,0.02376
970.145,0.02257
947,0.02315
923.856,0.02238
900.711,0.02178
877.567,0.02184
854.422,0.02173
831.277,0.02065
808.133,0.02072
784.988,0.02166
761.844,0.02021
738.699,0.01915
715.554,0.01908
692.41,0.01894
669.265,0.01815
646.12,0.01795
622.976,0.01704
599.831,0.01786