Folder: fsri_materials_database/01_Data/PEVA/FTIR/IS (part 6)

File: PEVA_0.10_IS_Trans_S_240819_R3.dpt
7496.91,0.92131
7473.76,0.93864
7450.62,0.94599
7427.47,0.94510
7404.33,0.92722
7381.18,0.92481
7358.04,0.92954
7334.89,0.92005
7311.75,0.92259
7288.61,0.91766
7265.46,0.92347
7242.32,0.90122
7219.17,0.92660
7196.03,0.91853
7172.88,0.91921
7149.74,0.92276
7126.59,0.91889
7103.45,0.91811
7080.3,0.92834
7057.16,0.92959
7034.02,0.91651
7010.87,0.93627
6987.73,0.92064
6964.58,0.93361
6941.44,0.92279
6918.29,0.92552
6895.15,0.92644
6872,0.91704
6848.86,0.92791
6825.71,0.94395
6802.57,0.93214
6779.43,0.93225
6756.28,0.93375
6733.14,0.92774
6709.99,0.93713
6686.85,0.93291
6663.7,0.92776
6640.56,0.93348
6617.41,0.94107
6594.27,0.92770
6571.12,0.93192
6547.98,0.93130
6524.84,0.93544
6501.69,0.93559
6478.55,0.93352
6455.4,0.94040
6432.26,0.93864
6409.11,0.93426
6385.97,0.93425
6362.82,0.93678
6339.68,0.93073
6316.53,0.93649
6293.39,0.93796
6270.24,0.93506
6247.1,0.93350
6223.96,0.93475
6200.81,0.93494
6177.67,0.93496
6154.52,0.93204
6131.38,0.92812
6108.23,0.93244
6085.09,0.92899
6061.94,0.92890
6038.8,0.92468
6015.65,0.92529
5992.51,0.92472
5969.37,0.92549
5946.22,0.92150
5923.08,0.91754
5899.93,0.91728
5876.79,0.90888
5853.64,0.88914
5830.5,0.86433
5807.35,0.83677
5784.21,0.78778
5761.06,0.82508
5737.92,0.87472
5714.78,0.88606
5691.63,0.86973
5668.49,0.84785
5645.34,0.87500
5622.2,0.88711
5599.05,0.89385
5575.91,0.89514
5552.76,0.89082
5529.62,0.89448
5506.47,0.88625
5483.33,0.89454
5460.19,0.88928
5437.04,0.89020
5413.9,0.88294
5390.75,0.90175
5367.61,0.90645
5344.46,0.88572
5321.32,0.91185
5298.17,0.90943
5275.03,0.91106
5251.88,0.90604
5228.74,0.90150
5205.6,0.89771
5182.45,0.90913
5159.31,0.91052
5136.16,0.91354
5113.02,0.91402
5089.87,0.91514
5066.73,0.91550
5043.58,0.91720
5020.44,0.91653
4997.29,0.91485
4974.15,0.91652
4951.01,0.91537
4927.86,0.91602
4904.72,0.91779
4881.57,0.91392
4858.43,0.91609
4835.28,0.92044
4812.14,0.91821
4788.99,0.92036
4765.85,0.92517
4742.7,0.92058
4719.56,0.92349
4696.42,0.92612
4673.27,0.92000
4650.13,0.92509
4626.98,0.92479
4603.84,0.91972
4580.69,0.92561
4557.55,0.92069
4534.4,0.91592
4511.26,0.91824
4488.11,0.91061
4464.97,0.90229
4441.83,0.89820
4418.68,0.87791
4395.54,0.83382
4372.39,0.78411
4349.25,0.66930
4326.1,0.40136
4302.96,0.72126
4279.81,0.70750
4256.67,0.52954
4233.52,0.67275
4210.38,0.63825
4187.24,0.58409
4164.09,0.59524
4140.95,0.60272
4117.8,0.61661
4094.66,0.62038
4071.51,0.69373
4048.37,0.72897
4025.22,0.74030
4002.08,0.78257
3978.93,0.78215
3955.79,0.79139
3932.65,0.76814
3909.5,0.77494
3886.36,0.76022
3863.21,0.75999
3840.07,0.75333
3816.92,0.76516
3793.78,0.80978
3770.63,0.80881
3747.49,0.77376
3724.34,0.79467
3701.2,0.80479
3678.06,0.78363
3654.91,0.78304
3631.77,0.78170
3608.62,0.73145
3585.48,0.82769
3562.33,0.85827
3539.19,0.88682
3516.04,0.88922
3492.9,0.88326
3469.75,0.88214
3446.61,0.86542
3423.47,0.86549
3400.32,0.87093
3377.18,0.86185
3354.03,0.86155
3330.89,0.87600
3307.74,0.87563
3284.6,0.86876
3261.45,0.87440
3238.31,0.87320
3215.16,0.85625
3192.02,0.84566
3168.87,0.84154
3145.73,0.82239
3122.59,0.78840
3099.44,0.72019
3076.3,0.61897
3053.15,0.54510
3030.01,0.42539
3006.86,0.32229
2983.72,0.14431
2960.57,0.00160
2937.43,0.00114
2914.28,0.00088
2891.14,0.00098
2868,0.00081
2844.85,0.00113
2821.71,0.04097
2798.56,0.17752
2775.42,0.35671
2752.27,0.44169
2729.13,0.45453
2705.98,0.50318
2682.84,0.48422
2659.69,0.46380
2636.55,0.47842
2613.41,0.56675
2590.26,0.63954
2567.12,0.71477
2543.97,0.75277
2520.83,0.76980
2497.68,0.81265
2474.54,0.82513
2451.39,0.84238
2428.25,0.83847
2405.1,0.83682
2381.96,0.81188
2358.82,0.66492
2335.67,0.65961
2312.53,0.73655
2289.38,0.81539
2266.24,0.84037
2243.09,0.84450
2219.95,0.87003
2196.8,0.86906
2173.66,0.86387
2150.51,0.86131
2127.37,0.87744
2104.23,0.88085
2081.08,0.88640
2057.94,0.86122
2034.79,0.83378
2011.65,0.84237
1988.5,0.87341
1965.36,0.87812
1942.21,0.87901
1919.07,0.85223
1895.92,0.83786
1872.78,0.89193
1849.64,0.87838
1826.49,0.87309
1803.35,0.88205
1780.2,0.85690
1757.06,0.84157
1733.91,0.79306
1710.77,0.78827
1687.62,0.83923
1664.48,0.84825
1641.33,0.81118
1618.19,0.82158
1595.05,0.82271
1571.9,0.78912
1548.76,0.78867
1525.61,0.73807
1502.47,0.66490
1479.32,0.28236
1456.18,0.02020
1433.03,0.30970
1409.89,0.70597
1386.74,0.64910
1363.6,0.41005
1340.46,0.58580
1317.31,0.60377
1294.17,0.59233
1271.02,0.66741
1247.88,0.71329
1224.73,0.75901
1201.59,0.76500
1178.44,0.74098
1155.3,0.75723
1132.15,0.77564
1109.01,0.76052
1085.87,0.73080
1062.72,0.75977
1039.58,0.76501
1016.43,0.71993
993.287,0.82296
970.142,0.79813
946.998,0.84040
923.853,0.84703
900.709,0.82399
877.564,0.85248
854.42,0.85440
831.275,0.82162
808.131,0.82958
784.986,0.78245
761.842,0.71299
738.697,0.50753
715.552,0.13324
692.408,0.79195
669.263,0.82710
646.119,0.87255
622.974,0.88747
599.83,0.94146

File: PEVA_0.10_IS_Trans_S_240819_R4.dpt
7496.91,0.92829
7473.76,0.94336
7450.62,0.93332
7427.47,0.92709
7404.33,0.91706
7381.18,0.92871
7358.04,0.93170
7334.89,0.93192
7311.75,0.91515
7288.61,0.92552
7265.46,0.92783
7242.32,0.91801
7219.17,0.90173
7196.03,0.90967
7172.88,0.90922
7149.74,0.92656
7126.59,0.91764
7103.45,0.91513
7080.3,0.91014
7057.16,0.91882
7034.02,0.92508
7010.87,0.91438
6987.73,0.92128
6964.58,0.91189
6941.44,0.92434
6918.29,0.92069
6895.15,0.92084
6872,0.92112
6848.86,0.92724
6825.71,0.93485
6802.57,0.92115
6779.43,0.92737
6756.28,0.92499
6733.14,0.93332
6709.99,0.92980
6686.85,0.93225
6663.7,0.92972
6640.56,0.93352
6617.41,0.93163
6594.27,0.93002
6571.12,0.93237
6547.98,0.93211
6524.84,0.93001
6501.69,0.93401
6478.55,0.92795
6455.4,0.93307
6432.26,0.93573
6409.11,0.93335
6385.97,0.93544
6362.82,0.93626
6339.68,0.93066
6316.53,0.93386
6293.39,0.93451
6270.24,0.93055
6247.1,0.93851
6223.96,0.93577
6200.81,0.93163
6177.67,0.93719
6154.52,0.93349
6131.38,0.93124
6108.23,0.92879
6085.09,0.93151
6061.94,0.92902
6038.8,0.92399
6015.65,0.92376
5992.51,0.92294
5969.37,0.92122
5946.22,0.91848
5923.08,0.91657
5899.93,0.90914
5876.79,0.90819
5853.64,0.88462
5830.5,0.86723
5807.35,0.83728
5784.21,0.78538
5761.06,0.81940
5737.92,0.86971
5714.78,0.88041
5691.63,0.87180
5668.49,0.84777
5645.34,0.87209
5622.2,0.88524
5599.05,0.89224
5575.91,0.88937
5552.76,0.88774
5529.62,0.89350
5506.47,0.88501
5483.33,0.89210
5460.19,0.88822
5437.04,0.88946
5413.9,0.88163
5390.75,0.89980
5367.61,0.90213
5344.46,0.89112
5321.32,0.91052
5298.17,0.90643
5275.03,0.91218
5251.88,0.90421
5228.74,0.90079
5205.6,0.89771
5182.45,0.90691
5159.31,0.90817
5136.16,0.91223
5113.02,0.91189
5089.87,0.91166
5066.73,0.91663
5043.58,0.91320
5020.44,0.91578
4997.29,0.91560
4974.15,0.90968
4951.01,0.91208
4927.86,0.91790
4904.72,0.91399
4881.57,0.91424
4858.43,0.91592
4835.28,0.91575
4812.14,0.91836
4788.99,0.92107
4765.85,0.91938
4742.7,0.92078
4719.56,0.92271
4696.42,0.92003
4673.27,0.92061
4650.13,0.92237
4626.98,0.91971
4603.84,0.92106
4580.69,0.92313
4557.55,0.91926
4534.4,0.91716
4511.26,0.91528
4488.11,0.90903
4464.97,0.90385
4441.83,0.89461
4418.68,0.87459
4395.54,0.83336
4372.39,0.77981
4349.25,0.66698
4326.1,0.40109
4302.96,0.71824
4279.81,0.70641
4256.67,0.52758
4233.52,0.66923
4210.38,0.63736
4187.24,0.58243
4164.09,0.59312
4140.95,0.60103
4117.8,0.61532
4094.66,0.61772
4071.51,0.69259
4048.37,0.72674
4025.22,0.73704
4002.08,0.78180
3978.93,0.78120
3955.79,0.78750
3932.65,0.76837
3909.5,0.77360
3886.36,0.75862
3863.21,0.75997
3840.07,0.75343
3816.92,0.76295
3793.78,0.80899
3770.63,0.80949
3747.49,0.77238
3724.34,0.78026
3701.2,0.79553
3678.06,0.78007
3654.91,0.78372
3631.77,0.77651
3608.62,0.72459
3585.48,0.82433
3562.33,0.86069
3539.19,0.88232
3516.04,0.88744
3492.9,0.88590
3469.75,0.87630
3446.61,0.86348
3423.47,0.86809
3400.32,0.86663
3377.18,0.85829
3354.03,0.86481
3330.89,0.87015
3307.74,0.87050
3284.6,0.87317
3261.45,0.87134
3238.31,0.86594
3215.16,0.85829
3192.02,0.84653
3168.87,0.83376
3145.73,0.81798
3122.59,0.78985
3099.44,0.72077
3076.3,0.61609
3053.15,0.54113
3030.01,0.42186
3006.86,0.32036
2983.72,0.14250
2960.57,0.00131
2937.43,0.00075
2914.28,0.00084
2891.14,0.00079
2868,0.00108
2844.85,0.00124
2821.71,0.04007
2798.56,0.17563
2775.42,0.35329
2752.27,0.43813
2729.13,0.45114
2705.98,0.50053
2682.84,0.48383
2659.69,0.46223
2636.55,0.47521
2613.41,0.56467
2590.26,0.63969
2567.12,0.71085
2543.97,0.74832
2520.83,0.76998
2497.68,0.80984
2474.54,0.82062
2451.39,0.84335
2428.25,0.83647
2405.1,0.83200
2381.96,0.77856
2358.82,0.49402
2335.67,0.52648
2312.53,0.66407
2289.38,0.79887
2266.24,0.82882
2243.09,0.84523
2219.95,0.86581
2196.8,0.86459
2173.66,0.86671
2150.51,0.85602
2127.37,0.87440
2104.23,0.88372
2081.08,0.87995
2057.94,0.85792
2034.79,0.83604
2011.65,0.83544
1988.5,0.87175
1965.36,0.88056
1942.21,0.87171
1919.07,0.85177
1895.92,0.83948
1872.78,0.88419
1849.64,0.87873
1826.49,0.87560
1803.35,0.87416
1780.2,0.85799
1757.06,0.83977
1733.91,0.78414
1710.77,0.78572
1687.62,0.83904
1664.48,0.84212
1641.33,0.81295
1618.19,0.82105
1595.05,0.81864
1571.9,0.78990
1548.76,0.78874
1525.61,0.73622
1502.47,0.66307
1479.32,0.28008
1456.18,0.02013
1433.03,0.30725
1409.89,0.70219
1386.74,0.64692
1363.6,0.40784
1340.46,0.58403
1317.31,0.60045
1294.17,0.59021
1271.02,0.66409
1247.88,0.70821
1224.73,0.75666
1201.59,0.76439
1178.44,0.73354
1155.3,0.75559
1132.15,0.77241
1109.01,0.75241
1085.87,0.73014
1062.72,0.75869
1039.58,0.75674
1016.43,0.72237
993.287,0.81792
970.142,0.79000
946.998,0.84354
923.853,0.84186
900.709,0.81397
877.564,0.85970
854.42,0.84773
831.275,0.81449
808.131,0.83671
784.986,0.77729
761.842,0.70398
738.697,0.50551
715.552,0.13162
692.408,0.77862
669.263,0.75421
646.119,0.83391
622.974,0.89360
599.83,0.94318

File: PEVA_0.10_IS_Trans_S_240819_R6.dpt
7496.91,0.93639
7473.76,0.93785
7450.62,0.95253
7427.47,0.93664
7404.33,0.94712
7381.18,0.94083
7358.04,0.94424
7334.89,0.92945
7311.75,0.92645
7288.61,0.91172
7265.46,0.91810
7242.32,0.91885
7219.17,0.92658
7196.03,0.92138
7172.88,0.92220
7149.74,0.93151
7126.59,0.93386
7103.45,0.92503
7080.3,0.92211
7057.16,0.92254
7034.02,0.92846
7010.87,0.92613
6987.73,0.92732
6964.58,0.93072
6941.44,0.92980
6918.29,0.93589
6895.15,0.92234
6872,0.92413
6848.86,0.92643
6825.71,0.93128
6802.57,0.93197
6779.43,0.93989
6756.28,0.94362
6733.14,0.92725
6709.99,0.93054
6686.85,0.93208
6663.7,0.93898
6640.56,0.94010
6617.41,0.94539
6594.27,0.94107
6571.12,0.93575
6547.98,0.93738
6524.84,0.93253
6501.69,0.94383
6478.55,0.93822
6455.4,0.92852
6432.26,0.94103
6409.11,0.93844
6385.97,0.93299
6362.82,0.94132
6339.68,0.94058
6316.53,0.93265
6293.39,0.93836
6270.24,0.93884
6247.1,0.93658
6223.96,0.94148
6200.81,0.93833
6177.67,0.93461
6154.52,0.93855
6131.38,0.93184
6108.23,0.93042
6085.09,0.93627
6061.94,0.93159
6038.8,0.93082
6015.65,0.93195
5992.51,0.92819
5969.37,0.92593
5946.22,0.92670
5923.08,0.92190
5899.93,0.91640
5876.79,0.91284
5853.64,0.88641
5830.5,0.86862
5807.35,0.84293
5784.21,0.79171
5761.06,0.82620
5737.92,0.87572
5714.78,0.88821
5691.63,0.87474
5668.49,0.85306
5645.34,0.87761
5622.2,0.89128
5599.05,0.89922
5575.91,0.89671
5552.76,0.89501
5529.62,0.89667
5506.47,0.88626
5483.33,0.89678
5460.19,0.88238
5437.04,0.88793
5413.9,0.87748
5390.75,0.90279
5367.61,0.90589
5344.46,0.87874
5321.32,0.91236
5298.17,0.90891
5275.03,0.91156
5251.88,0.90449
5228.74,0.90140
5205.6,0.89300
5182.45,0.90957
5159.31,0.90962
5136.16,0.91772
5113.02,0.91805
5089.87,0.91458
5066.73,0.91721
5043.58,0.92130
5020.44,0.91871
4997.29,0.91828
4974.15,0.91633
4951.01,0.91888
4927.86,0.92236
4904.72,0.91839
4881.57,0.91644
4858.43,0.92012
4835.28,0.92279
4812.14,0.92218
4788.99,0.92557
4765.85,0.92682
4742.7,0.92395
4719.56,0.92772
4696.42,0.92733
4673.27,0.92429
4650.13,0.92820
4626.98,0.92780
4603.84,0.92633
4580.69,0.92555
4557.55,0.92404
4534.4,0.92117
4511.26,0.91947
4488.11,0.91489
4464.97,0.90819
4441.83,0.90024
4418.68,0.88075
4395.54,0.83772
4372.39,0.78368
4349.25,0.67079
4326.1,0.40134
4302.96,0.72186
4279.81,0.71015
4256.67,0.53009
4233.52,0.67207
4210.38,0.64096
4187.24,0.58529
4164.09,0.59612
4140.95,0.60396
4117.8,0.61868
4094.66,0.62090
4071.51,0.69716
4048.37,0.72931
4025.22,0.74075
4002.08,0.78619
3978.93,0.78278
3955.79,0.79080
3932.65,0.76436
3909.5,0.77413
3886.36,0.75147
3863.21,0.74492
3840.07,0.72954
3816.92,0.74652
3793.78,0.80739
3770.63,0.79943
3747.49,0.74083
3724.34,0.75455
3701.2,0.77900
3678.06,0.76138
3654.91,0.77414
3631.77,0.75600
3608.62,0.70964
3585.48,0.81022
3562.33,0.84907
3539.19,0.88280
3516.04,0.89109
3492.9,0.88500
3469.75,0.88062
3446.61,0.86513
3423.47,0.86640
3400.32,0.86804
3377.18,0.86496
3354.03,0.86697
3330.89,0.87234
3307.74,0.87659
3284.6,0.87608
3261.45,0.87377
3238.31,0.87195
3215.16,0.86176
3192.02,0.84820
3168.87,0.83775
3145.73,0.82365
3122.59,0.79310
3099.44,0.72109
3076.3,0.61816
3053.15,0.54336
3030.01,0.42364
3006.86,0.32116
2983.72,0.14280
2960.57,0.00150
2937.43,0.00103
2914.28,0.00086
2891.14,0.00049
2868,0.00080
2844.85,0.00102
2821.71,0.04082
2798.56,0.17618
2775.42,0.35560
2752.27,0.44068
2729.13,0.45371
2705.98,0.50423
2682.84,0.48654
2659.69,0.46438
2636.55,0.47743
2613.41,0.56852
2590.26,0.64273
2567.12,0.71452
2543.97,0.75397
2520.83,0.77464
2497.68,0.81336
2474.54,0.82586
2451.39,0.84858
2428.25,0.84063
2405.1,0.83805
2381.96,0.75545
2358.82,0.39293
2335.67,0.44563
2312.53,0.61174
2289.38,0.78998
2266.24,0.82793
2243.09,0.84970
2219.95,0.86890
2196.8,0.87073
2173.66,0.87167
2150.51,0.85971
2127.37,0.88102
2104.23,0.88997
2081.08,0.88320
2057.94,0.86470
2034.79,0.84139
2011.65,0.83888
1988.5,0.87580
1965.36,0.88306
1942.21,0.86912
1919.07,0.85268
1895.92,0.84151
1872.78,0.88441
1849.64,0.88144
1826.49,0.86967
1803.35,0.87045
1780.2,0.85479
1757.06,0.83451
1733.91,0.76273
1710.77,0.77799
1687.62,0.82214
1664.48,0.83285
1641.33,0.80815
1618.19,0.81143
1595.05,0.81451
1571.9,0.78169
1548.76,0.77950
1525.61,0.71031
1502.47,0.65216
1479.32,0.27945
1456.18,0.01953
1433.03,0.30580
1409.89,0.70042
1386.74,0.64272
1363.6,0.40666
1340.46,0.57835
1317.31,0.60013
1294.17,0.59394
1271.02,0.66346
1247.88,0.71205
1224.73,0.76352
1201.59,0.76379
1178.44,0.73882
1155.3,0.76218
1132.15,0.77401
1109.01,0.75794
1085.87,0.73735
1062.72,0.75899
1039.58,0.76357
1016.43,0.72713
993.287,0.81940
970.142,0.79660
946.998,0.84964
923.853,0.84201
900.709,0.82375
877.564,0.86463
854.42,0.84835
831.275,0.82146
808.131,0.84137
784.986,0.77704
761.842,0.70946
738.697,0.50841
715.552,0.13323
692.408,0.76582
669.263,0.70598
646.119,0.81774
622.974,0.89907
599.83,0.94193

File: PEVA_0.10_IS_Trans_S_240819_R7.dpt
7496.91,0.93050
7473.76,0.94542
7450.62,0.94011
7427.47,0.94367
7404.33,0.92728
7381.18,0.92116
7358.04,0.91697
7334.89,0.91356
7311.75,0.91689
7288.61,0.93232
7265.46,0.94623
7242.32,0.93538
7219.17,0.93187
7196.03,0.93311
7172.88,0.92302
7149.74,0.92502
7126.59,0.92926
7103.45,0.92844
7080.3,0.93003
7057.16,0.92400
7034.02,0.92753
7010.87,0.91928
6987.73,0.92387
6964.58,0.92975
6941.44,0.92392
6918.29,0.92382
6895.15,0.92868
6872,0.93395
6848.86,0.93081
6825.71,0.92892
6802.57,0.93012
6779.43,0.93121
6756.28,0.94542
6733.14,0.93133
6709.99,0.93355
6686.85,0.93695
6663.7,0.93429
6640.56,0.93759
6617.41,0.93968
6594.27,0.93397
6571.12,0.93826
6547.98,0.93842
6524.84,0.93395
6501.69,0.93861
6478.55,0.93888
6455.4,0.93664
6432.26,0.93723
6409.11,0.92836
6385.97,0.93978
6362.82,0.93979
6339.68,0.93914
6316.53,0.93898
6293.39,0.94054
6270.24,0.93713
6247.1,0.93663
6223.96,0.94117
6200.81,0.93692
6177.67,0.94018
6154.52,0.93563
6131.38,0.93144
6108.23,0.93855
6085.09,0.93365
6061.94,0.93287
6038.8,0.93297
6015.65,0.92726
5992.51,0.92634
5969.37,0.92639
5946.22,0.92134
5923.08,0.91785
5899.93,0.91497
5876.79,0.90298
5853.64,0.88678
5830.5,0.86799
5807.35,0.84150
5784.21,0.78803
5761.06,0.82049
5737.92,0.87265
5714.78,0.88653
5691.63,0.87651
5668.49,0.84955
5645.34,0.88092
5622.2,0.89017
5599.05,0.89590
5575.91,0.89593
5552.76,0.89201
5529.62,0.89544
5506.47,0.89334
5483.33,0.89347
5460.19,0.89449
5437.04,0.89841
5413.9,0.89717
5390.75,0.90533
5367.61,0.91117
5344.46,0.90472
5321.32,0.91165
5298.17,0.91322
5275.03,0.91140
5251.88,0.91193
5228.74,0.91267
5205.6,0.90562
5182.45,0.91402
5159.31,0.91218
5136.16,0.91661
5113.02,0.91688
5089.87,0.91554
5066.73,0.91619
5043.58,0.91905
5020.44,0.91756
4997.29,0.91633
4974.15,0.91523
4951.01,0.91413
4927.86,0.91923
4904.72,0.91927
4881.57,0.91929
4858.43,0.91900
4835.28,0.92132
4812.14,0.92288
4788.99,0.92249
4765.85,0.92600
4742.7,0.92361
4719.56,0.92482
4696.42,0.92738
4673.27,0.92163
4650.13,0.92493
4626.98,0.92614
4603.84,0.92253
4580.69,0.92396
4557.55,0.92247
4534.4,0.91861
4511.26,0.91793
4488.11,0.91294
4464.97,0.90592
4441.83,0.89754
4418.68,0.87909
4395.54,0.83487
4372.39,0.78305
4349.25,0.67026
4326.1,0.40086
4302.96,0.72071
4279.81,0.70916
4256.67,0.52855
4233.52,0.67081
4210.38,0.63948
4187.24,0.58333
4164.09,0.59597
4140.95,0.60314
4117.8,0.61588
4094.66,0.62140
4071.51,0.69510
4048.37,0.72882
4025.22,0.74281
4002.08,0.78381
3978.93,0.78296
3955.79,0.79664
3932.65,0.77710
3909.5,0.77715
3886.36,0.77561
3863.21,0.78093
3840.07,0.78289
3816.92,0.78800
3793.78,0.81635
3770.63,0.82338
3747.49,0.81316
3724.34,0.81944
3701.2,0.82199
3678.06,0.80900
3654.91,0.79778
3631.77,0.80516
3608.62,0.75103
3585.48,0.84473
3562.33,0.87635
3539.19,0.89097
3516.04,0.89292
3492.9,0.89192
3469.75,0.88346
3446.61,0.87096
3423.47,0.87348
3400.32,0.87134
3377.18,0.86149
3354.03,0.86801
3330.89,0.87499
3307.74,0.87435
3284.6,0.87782
3261.45,0.87623
3238.31,0.86855
3215.16,0.86164
3192.02,0.85063
3168.87,0.83637
3145.73,0.82001
3122.59,0.79501
3099.44,0.72402
3076.3,0.61770
3053.15,0.54143
3030.01,0.42232
3006.86,0.31995
2983.72,0.14244
2960.57,0.00153
2937.43,0.00050
2914.28,0.00061
2891.14,0.00101
2868,0.00080
2844.85,0.00130
2821.71,0.04057
2798.56,0.17527
2775.42,0.35389
2752.27,0.43863
2729.13,0.45040
2705.98,0.50086
2682.84,0.48472
2659.69,0.46400
2636.55,0.47573
2613.41,0.56532
2590.26,0.64271
2567.12,0.71388
2543.97,0.74839
2520.83,0.77235
2497.68,0.81449
2474.54,0.82186
2451.39,0.84410
2428.25,0.84172
2405.1,0.83536
2381.96,0.82872
2358.82,0.77006
2335.67,0.73277
2312.53,0.77490
2289.38,0.82189
2266.24,0.84417
2243.09,0.84738
2219.95,0.86959
2196.8,0.87067
2173.66,0.86623
2150.51,0.85975
2127.37,0.88124
2104.23,0.88325
2081.08,0.88314
2057.94,0.86577
2034.79,0.83512
2011.65,0.83913
1988.5,0.88271
1965.36,0.88159
1942.21,0.88114
1919.07,0.86602
1895.92,0.83987
1872.78,0.89216
1849.64,0.89081
1826.49,0.88212
1803.35,0.88655
1780.2,0.87457
1757.06,0.84056
1733.91,0.80715
1710.77,0.78940
1687.62,0.85411
1664.48,0.86082
1641.33,0.82615
1618.19,0.83198
1595.05,0.83028
1571.9,0.80798
1548.76,0.79976
1525.61,0.76631
1502.47,0.68202
1479.32,0.28326
1456.18,0.02074
1433.03,0.31149
1409.89,0.71023
1386.74,0.65400
1363.6,0.41147
1340.46,0.59390
1317.31,0.60380
1294.17,0.58821
1271.02,0.66872
1247.88,0.70405
1224.73,0.75535
1201.59,0.76853
1178.44,0.72836
1155.3,0.75401
1132.15,0.77839
1109.01,0.74626
1085.87,0.73426
1062.72,0.76231
1039.58,0.75180
1016.43,0.72812
993.287,0.82242
970.142,0.78323
946.998,0.85378
923.853,0.84432
900.709,0.80976
877.564,0.87196
854.42,0.84971
831.275,0.81061
808.131,0.85054
784.986,0.77894
761.842,0.70140
738.697,0.50917
715.552,0.13258
692.408,0.82107
669.263,0.87435
646.119,0.86008
622.974,0.90921
599.83,0.95529

File: PEVA_0.10_IS_Trans_S_240819_R8.dpt
7496.91,0.93807
7473.76,0.97005
7450.62,0.95307
7427.47,0.93879
7404.33,0.94050
7381.18,0.91887
7358.04,0.93680
7334.89,0.93491
7311.75,0.92103
7288.61,0.92465
7265.46,0.93093
7242.32,0.89697
7219.17,0.90817
7196.03,0.92053
7172.88,0.92648
7149.74,0.94186
7126.59,0.94542
7103.45,0.92668
7080.3,0.93451
7057.16,0.93419
7034.02,0.94345
7010.87,0.92505
6987.73,0.93666
6964.58,0.93932
6941.44,0.93114
6918.29,0.92950
6895.15,0.94347
6872,0.94032
6848.86,0.94048
6825.71,0.94437
6802.57,0.93314
6779.43,0.93889
6756.28,0.93974
6733.14,0.94919
6709.99,0.94848
6686.85,0.94318
6663.7,0.94603
6640.56,0.95109
6617.41,0.95112
6594.27,0.95131
6571.12,0.94899
6547.98,0.94390
6524.84,0.94433
6501.69,0.94895
6478.55,0.94458
6455.4,0.94459
6432.26,0.94444
6409.11,0.94015
6385.97,0.94922
6362.82,0.94780
6339.68,0.94702
6316.53,0.94466
6293.39,0.94932
6270.24,0.94825
6247.1,0.94884
6223.96,0.94019
6200.81,0.94601
6177.67,0.94800
6154.52,0.94249
6131.38,0.94093
6108.23,0.94217
6085.09,0.94332
6061.94,0.93752
6038.8,0.93811
6015.65,0.94067
5992.51,0.94012
5969.37,0.93656
5946.22,0.93417
5923.08,0.92590
5899.93,0.92602
5876.79,0.92111
5853.64,0.89788
5830.5,0.87852
5807.35,0.84702
5784.21,0.80117
5761.06,0.83291
5737.92,0.88523
5714.78,0.89889
5691.63,0.88618
5668.49,0.86072
5645.34,0.88847
5622.2,0.90073
5599.05,0.90409
5575.91,0.90490
5552.76,0.90029
5529.62,0.90347
5506.47,0.88941
5483.33,0.90550
5460.19,0.88406
5437.04,0.88912
5413.9,0.87119
5390.75,0.90281
5367.61,0.91247
5344.46,0.87360
5321.32,0.91536
5298.17,0.91520
5275.03,0.92225
5251.88,0.90378
5228.74,0.90102
5205.6,0.88705
5182.45,0.91391
5159.31,0.91548
5136.16,0.92472
5113.02,0.92407
5089.87,0.92498
5066.73,0.92793
5043.58,0.92564
5020.44,0.92518
4997.29,0.92600
4974.15,0.92610
4951.01,0.92575
4927.86,0.92971
4904.72,0.92820
4881.57,0.92602
4858.43,0.92751
4835.28,0.92807
4812.14,0.93035
4788.99,0.93492
4765.85,0.93226
4742.7,0.93238
4719.56,0.93585
4696.42,0.93174
4673.27,0.93203
4650.13,0.93530
4626.98,0.93310
4603.84,0.93245
4580.69,0.93519
4557.55,0.92989
4534.4,0.92944
4511.26,0.92883
4488.11,0.91999
4464.97,0.91707
4441.83,0.90960
4418.68,0.88574
4395.54,0.84591
4372.39,0.79217
4349.25,0.67708
4326.1,0.40785
4302.96,0.72859
4279.81,0.71615
4256.67,0.53815
4233.52,0.67828
4210.38,0.64674
4187.24,0.59286
4164.09,0.60217
4140.95,0.61088
4117.8,0.62652
4094.66,0.62775
4071.51,0.70416
4048.37,0.73695
4025.22,0.74503
4002.08,0.79357
3978.93,0.78914
3955.79,0.79148
3932.65,0.76027
3909.5,0.77757
3886.36,0.73959
3863.21,0.72694
3840.07,0.69853
3816.92,0.72143
3793.78,0.80729
3770.63,0.78769
3747.49,0.70141
3724.34,0.74038
3701.2,0.77429
3678.06,0.73887
3654.91,0.76371
3631.77,0.74026
3608.62,0.69633
3585.48,0.79720
3562.33,0.83522
3539.19,0.88289
3516.04,0.89461
3492.9,0.88350
3469.75,0.88301
3446.61,0.86234
3423.47,0.86548
3400.32,0.87161
3377.18,0.87070
3354.03,0.86576
3330.89,0.87678
3307.74,0.88146
3284.6,0.87592
3261.45,0.87719
3238.31,0.87836
3215.16,0.86230
3192.02,0.85142
3168.87,0.84582
3145.73,0.82941
3122.59,0.79367
3099.44,0.72402
3076.3,0.62238
3053.15,0.54852
3030.01,0.42698
3006.86,0.32489
2983.72,0.14538
2960.57,0.00103
2937.43,0.00044
2914.28,0.00090
2891.14,0.00065
2868,0.00065
2844.85,0.00121
2821.71,0.04156
2798.56,0.17979
2775.42,0.36047
2752.27,0.44636
2729.13,0.45962
2705.98,0.50986
2682.84,0.49076
2659.69,0.47006
2636.55,0.48411
2613.41,0.57404
2590.26,0.64863
2567.12,0.72259
2543.97,0.76189
2520.83,0.77970
2497.68,0.82277
2474.54,0.83504
2451.39,0.85370
2428.25,0.84899
2405.1,0.84675
2381.96,0.76852
2358.82,0.42404
2335.67,0.47457
2312.53,0.63360
2289.38,0.80283
2266.24,0.83934
2243.09,0.85601
2219.95,0.87762
2196.8,0.88069
2173.66,0.87734
2150.51,0.86860
2127.37,0.88955
2104.23,0.89616
2081.08,0.89131
2057.94,0.87386
2034.79,0.84811
2011.65,0.84673
1988.5,0.88096
1965.36,0.88694
1942.21,0.86708
1919.07,0.85394
1895.92,0.84481
1872.78,0.88612
1849.64,0.88649
1826.49,0.86440
1803.35,0.86491
1780.2,0.85356
1757.06,0.83003
1733.91,0.73405
1710.77,0.77153
1687.62,0.79959
1664.48,0.81629
1641.33,0.80771
1618.19,0.79581
1595.05,0.80726
1571.9,0.77632
1548.76,0.76906
1525.61,0.67306
1502.47,0.64029
1479.32,0.27926
1456.18,0.01987
1433.03,0.30340
1409.89,0.69727
1386.74,0.64658
1363.6,0.40520
1340.46,0.57026
1317.31,0.60871
1294.17,0.59938
1271.02,0.66085
1247.88,0.73294
1224.73,0.76524
1201.59,0.76229
1178.44,0.76162
1155.3,0.76393
1132.15,0.77173
1109.01,0.78427
1085.87,0.73479
1062.72,0.76220
1039.58,0.78900
1016.43,0.72296
993.287,0.82645
970.142,0.82393
946.998,0.83701
923.853,0.85539
900.709,0.84720
877.564,0.85158
854.42,0.86389
831.275,0.84585
808.131,0.82839
784.986,0.79221
761.842,0.73103
738.697,0.51441
715.552,0.13475
692.408,0.76382
669.263,0.72274
646.119,0.85969
622.974,0.89049
599.83,0.94410