Folder: fsri_materials_database/01_Data/PEVA/FTIR/IS (part 16)

File: PEVA_0.26_IS_S_240809_R4.dpt
7497.2,0.10839
7474.05,0.10054
7450.91,0.09305
7427.76,0.09581
7404.62,0.09818
7381.47,0.11213
7358.33,0.10470
7335.18,0.11007
7312.04,0.10624
7288.89,0.11354
7265.75,0.10263
7242.6,0.09650
7219.45,0.10084
7196.31,0.09982
7173.16,0.09577
7150.02,0.10691
7126.87,0.10407
7103.73,0.10209
7080.58,0.10297
7057.44,0.10688
7034.29,0.10782
7011.15,0.09744
6988,0.10715
6964.85,0.09788
6941.71,0.09282
6918.56,0.09994
6895.42,0.10709
6872.27,0.10046
6849.13,0.10819
6825.98,0.09903
6802.84,0.10574
6779.69,0.10621
6756.55,0.10211
6733.4,0.10557
6710.25,0.10159
6687.11,0.10311
6663.96,0.10463
6640.82,0.09852
6617.67,0.10282
6594.53,0.10308
6571.38,0.10401
6548.24,0.10117
6525.09,0.09742
6501.95,0.10680
6478.8,0.10506
6455.65,0.10190
6432.51,0.10084
6409.36,0.09961
6386.22,0.10250
6363.07,0.10175
6339.93,0.10344
6316.78,0.10229
6293.64,0.09985
6270.49,0.10072
6247.34,0.09995
6224.2,0.09964
6201.05,0.10107
6177.91,0.10029
6154.76,0.10359
6131.62,0.10270
6108.47,0.10336
6085.33,0.10196
6062.18,0.10260
6039.04,0.09987
6015.89,0.09899
5992.74,0.10157
5969.6,0.10062
5946.45,0.09636
5923.31,0.09782
5900.16,0.09794
5877.02,0.08898
5853.87,0.08930
5830.73,0.08673
5807.58,0.08996
5784.44,0.09148
5761.29,0.09329
5738.14,0.09442
5715,0.09245
5691.85,0.09488
5668.71,0.09733
5645.56,0.09647
5622.42,0.09908
5599.27,0.09789
5576.13,0.09844
5552.98,0.09752
5529.84,0.09869
5506.69,0.09953
5483.54,0.10060
5460.4,0.10087
5437.25,0.09962
5414.11,0.09894
5390.96,0.10031
5367.82,0.10087
5344.67,0.09994
5321.53,0.10161
5298.38,0.10297
5275.24,0.10135
5252.09,0.10311
5228.94,0.10151
5205.8,0.10138
5182.65,0.10211
5159.51,0.10185
5136.36,0.10285
5113.22,0.10119
5090.07,0.10320
5066.93,0.10142
5043.78,0.10231
5020.64,0.10194
4997.49,0.10273
4974.34,0.10318
4951.2,0.10312
4928.05,0.10340
4904.91,0.10154
4881.76,0.10378
4858.62,0.10364
4835.47,0.10360
4812.33,0.10187
4789.18,0.10318
4766.04,0.10291
4742.89,0.10365
4719.74,0.10307
4696.6,0.10168
4673.45,0.10053
4650.31,0.10079
4627.16,0.10008
4604.02,0.10247
4580.87,0.10163
4557.73,0.10219
4534.58,0.10209
4511.44,0.10070
4488.29,0.10009
4465.14,0.09863
4442,0.09353
4418.85,0.08619
4395.71,0.08145
4372.56,0.07672
4349.42,0.07089
4326.27,0.06958
4303.13,0.07292
4279.98,0.07237
4256.84,0.07415
4233.69,0.07433
4210.54,0.07314
4187.4,0.07494
4164.25,0.07432
4141.11,0.07821
4117.96,0.07990
4094.82,0.07805
4071.67,0.07656
4048.53,0.08195
4025.38,0.08249
4002.24,0.08430
3979.09,0.08684
3955.94,0.08789
3932.8,0.08833
3909.65,0.08830
3886.51,0.08906
3863.36,0.08991
3840.22,0.08945
3817.07,0.09032
3793.93,0.09160
3770.78,0.09292
3747.64,0.09213
3724.49,0.09304
3701.34,0.09127
3678.2,0.08613
3655.05,0.08671
3631.91,0.08663
3608.76,0.08427
3585.62,0.08168
3562.47,0.07816
3539.33,0.07713
3516.18,0.07593
3493.04,0.07323
3469.89,0.07082
3446.74,0.06797
3423.6,0.06437
3400.45,0.06888
3377.31,0.07131
3354.16,0.07391
3331.02,0.07212
3307.87,0.06602
3284.73,0.07015
3261.58,0.07622
3238.44,0.07682
3215.29,0.07600
3192.14,0.07528
3169,0.07517
3145.85,0.07381
3122.71,0.07248
3099.56,0.06814
3076.42,0.06534
3053.27,0.06306
3030.13,0.06109
3006.98,0.05853
2983.84,0.05676
2960.69,0.05860
2937.54,0.05931
2914.4,0.06261
2891.25,0.06278
2868.11,0.06246
2844.96,0.06393
2821.82,0.06287
2798.67,0.06504
2775.53,0.06830
2752.38,0.06844
2729.24,0.06722
2706.09,0.07165
2682.94,0.07271
2659.8,0.07352
2636.65,0.07442
2613.51,0.07345
2590.36,0.07332
2567.22,0.07427
2544.07,0.07533
2520.93,0.07640
2497.78,0.07893
2474.64,0.07987
2451.49,0.08071
2428.34,0.07919
2405.2,0.07622
2382.05,0.07446
2358.91,0.07708
2335.76,0.08131
2312.62,0.08276
2289.47,0.08089
2266.33,0.08046
2243.18,0.08084
2220.04,0.08109
2196.89,0.08407
2173.74,0.08539
2150.6,0.08480
2127.45,0.08381
2104.31,0.08299
2081.16,0.08204
2058.02,0.08254
2034.87,0.08384
2011.73,0.08476
1988.58,0.08194
1965.44,0.07816
1942.29,0.07347
1919.14,0.07993
1896,0.08081
1872.85,0.08107
1849.71,0.07649
1826.56,0.06664
1803.42,0.06673
1780.27,0.06121
1757.13,0.05516
1733.98,0.04979
1710.84,0.07030
1687.69,0.06148
1664.54,0.06169
1641.4,0.06065
1618.25,0.06366
1595.11,0.06445
1571.96,0.05867
1548.82,0.06052
1525.67,0.05990
1502.53,0.05672
1479.38,0.05473
1456.24,0.05718
1433.09,0.05562
1409.94,0.05628
1386.8,0.05476
1363.65,0.05527
1340.51,0.05295
1317.36,0.05306
1294.22,0.04821
1271.07,0.06652
1247.93,0.07326
1224.78,0.06850
1201.64,0.06360
1178.49,0.06094
1155.34,0.05893
1132.2,0.05415
1109.05,0.06545
1085.91,0.06757
1062.76,0.06557
1039.62,0.06234
1016.47,0.06556
993.326,0.06124
970.18,0.06111
947.035,0.06433
923.89,0.06351
900.744,0.06272
877.599,0.06195
854.453,0.06279
831.308,0.06156
808.162,0.06297
785.017,0.06086
761.871,0.06102
738.726,0.05247
715.58,0.06159
692.435,0.06033
669.29,0.06007
646.144,0.05717
622.999,0.06025
599.853,0.06533

File: PEVA_0.26_IS_S_240809_R5.dpt
7497.2,0.08715
7474.05,0.09506
7450.91,0.08986
7427.76,0.10323
7404.62,0.10256
7381.47,0.09937
7358.33,0.10362
7335.18,0.10597
7312.04,0.09068
7288.89,0.09059
7265.75,0.10290
7242.6,0.09919
7219.45,0.10471
7196.31,0.09441
7173.16,0.09298
7150.02,0.09997
7126.87,0.09514
7103.73,0.09530
7080.58,0.11128
7057.44,0.10050
7034.29,0.10313
7011.15,0.10310
6988,0.10394
6964.85,0.10414
6941.71,0.09958
6918.56,0.09578
6895.42,0.10416
6872.27,0.08981
6849.13,0.10116
6825.98,0.09985
6802.84,0.09819
6779.69,0.10506
6756.55,0.10270
6733.4,0.10055
6710.25,0.10155
6687.11,0.10412
6663.96,0.10141
6640.82,0.10113
6617.67,0.09905
6594.53,0.10219
6571.38,0.10215
6548.24,0.09649
6525.09,0.10360
6501.95,0.10737
6478.8,0.10586
6455.65,0.09938
6432.51,0.10466
6409.36,0.10322
6386.22,0.10273
6363.07,0.10152
6339.93,0.10077
6316.78,0.10343
6293.64,0.10084
6270.49,0.10224
6247.34,0.09851
6224.2,0.10275
6201.05,0.10013
6177.91,0.09950
6154.76,0.10170
6131.62,0.10127
6108.47,0.10433
6085.33,0.10116
6062.18,0.09973
6039.04,0.09788
6015.89,0.09640
5992.74,0.10076
5969.6,0.10294
5946.45,0.09946
5923.31,0.09844
5900.16,0.09465
5877.02,0.09146
5853.87,0.09008
5830.73,0.08381
5807.58,0.08836
5784.44,0.09211
5761.29,0.09611
5738.14,0.08978
5715,0.09662
5691.85,0.09534
5668.71,0.09695
5645.56,0.09827
5622.42,0.09859
5599.27,0.09721
5576.13,0.09906
5552.98,0.09837
5529.84,0.09890
5506.69,0.09941
5483.54,0.09785
5460.4,0.09918
5437.25,0.09879
5414.11,0.09940
5390.96,0.10099
5367.82,0.10072
5344.67,0.10061
5321.53,0.10238
5298.38,0.10111
5275.24,0.10078
5252.09,0.09944
5228.94,0.10195
5205.8,0.10070
5182.65,0.10167
5159.51,0.10292
5136.36,0.10143
5113.22,0.10228
5090.07,0.10075
5066.93,0.10249
5043.78,0.10256
5020.64,0.10249
4997.49,0.10168
4974.34,0.10310
4951.2,0.10173
4928.05,0.10486
4904.91,0.10268
4881.76,0.10405
4858.62,0.10314
4835.47,0.10246
4812.33,0.10361
4789.18,0.10250
4766.04,0.10284
4742.89,0.10349
4719.74,0.10117
4696.6,0.10008
4673.45,0.10099
4650.31,0.10103
4627.16,0.10004
4604.02,0.10081
4580.87,0.10283
4557.73,0.10170
4534.58,0.10164
4511.44,0.10097
4488.29,0.09930
4465.14,0.09878
4442,0.09399
4418.85,0.08597
4395.71,0.08047
4372.56,0.07607
4349.42,0.07050
4326.27,0.06823
4303.13,0.07410
4279.98,0.07294
4256.84,0.07471
4233.69,0.07429
4210.54,0.07308
4187.4,0.07465
4164.25,0.07504
4141.11,0.07825
4117.96,0.07873
4094.82,0.07774
4071.67,0.07751
4048.53,0.08154
4025.38,0.08240
4002.24,0.08461
3979.09,0.08750
3955.94,0.08813
3932.8,0.08781
3909.65,0.08858
3886.51,0.08871
3863.36,0.08946
3840.22,0.08863
3817.07,0.09011
3793.93,0.09173
3770.78,0.09279
3747.64,0.09206
3724.49,0.09406
3701.34,0.09164
3678.2,0.08563
3655.05,0.08613
3631.91,0.08661
3608.76,0.08266
3585.62,0.08138
3562.47,0.07783
3539.33,0.07556
3516.18,0.07448
3493.04,0.07325
3469.89,0.07063
3446.74,0.06717
3423.6,0.06446
3400.45,0.06764
3377.31,0.07092
3354.16,0.07264
3331.02,0.07178
3307.87,0.06588
3284.73,0.07007
3261.58,0.07611
3238.44,0.07615
3215.29,0.07608
3192.14,0.07538
3169,0.07422
3145.85,0.07374
3122.71,0.07175
3099.56,0.06837
3076.42,0.06458
3053.27,0.06319
3030.13,0.06165
3006.98,0.05846
2983.84,0.05636
2960.69,0.05879
2937.54,0.05939
2914.4,0.06214
2891.25,0.06245
2868.11,0.06200
2844.96,0.06365
2821.82,0.06227
2798.67,0.06480
2775.53,0.06834
2752.38,0.06890
2729.24,0.06819
2706.09,0.07186
2682.94,0.07247
2659.8,0.07342
2636.65,0.07394
2613.51,0.07349
2590.36,0.07352
2567.22,0.07389
2544.07,0.07518
2520.93,0.07591
2497.78,0.07897
2474.64,0.08044
2451.49,0.08100
2428.34,0.07887
2405.2,0.07601
2382.05,0.07423
2358.91,0.07659
2335.76,0.08054
2312.62,0.08249
2289.47,0.08066
2266.33,0.08028
2243.18,0.08033
2220.04,0.08099
2196.89,0.08376
2173.74,0.08495
2150.6,0.08406
2127.45,0.08371
2104.31,0.08312
2081.16,0.08180
2058.02,0.08199
2034.87,0.08312
2011.73,0.08426
1988.58,0.08177
1965.44,0.07814
1942.29,0.07306
1919.14,0.07960
1896,0.08045
1872.85,0.08026
1849.71,0.07621
1826.56,0.06659
1803.42,0.06672
1780.27,0.06094
1757.13,0.05512
1733.98,0.04995
1710.84,0.06936
1687.69,0.06116
1664.54,0.06086
1641.4,0.06057
1618.25,0.06319
1595.11,0.06411
1571.96,0.05875
1548.82,0.06044
1525.67,0.05911
1502.53,0.05674
1479.38,0.05445
1456.24,0.05668
1433.09,0.05555
1409.94,0.05617
1386.8,0.05448
1363.65,0.05453
1340.51,0.05249
1317.36,0.05263
1294.22,0.04756
1271.07,0.06507
1247.93,0.07190
1224.78,0.06783
1201.64,0.06305
1178.49,0.06047
1155.34,0.05863
1132.2,0.05424
1109.05,0.06401
1085.91,0.06662
1062.76,0.06449
1039.62,0.06261
1016.47,0.06514
993.326,0.06094
970.18,0.06055
947.035,0.06413
923.89,0.06269
900.744,0.06141
877.599,0.06149
854.453,0.06205
831.308,0.06156
808.162,0.06179
785.017,0.06059
761.871,0.05861
738.726,0.05162
715.58,0.06049
692.435,0.05846
669.29,0.05948
646.144,0.05656
622.999,0.06168
599.853,0.06700

File: PEVA_0.26_IS_S_240809_R6.dpt
7497.2,0.10646
7474.05,0.10085
7450.91,0.10467
7427.76,0.10668
7404.62,0.09591
7381.47,0.10098
7358.33,0.10237
7335.18,0.09828
7312.04,0.10331
7288.89,0.10087
7265.75,0.09403
7242.6,0.10205
7219.45,0.10842
7196.31,0.10124
7173.16,0.09651
7150.02,0.09302
7126.87,0.10383
7103.73,0.10295
7080.58,0.10339
7057.44,0.09915
7034.29,0.09610
7011.15,0.09675
6988,0.09831
6964.85,0.10786
6941.71,0.10513
6918.56,0.09953
6895.42,0.10206
6872.27,0.10928
6849.13,0.11218
6825.98,0.10023
6802.84,0.10658
6779.69,0.10614
6756.55,0.09939
6733.4,0.10331
6710.25,0.10431
6687.11,0.10224
6663.96,0.10251
6640.82,0.09967
6617.67,0.10177
6594.53,0.10056
6571.38,0.09839
6548.24,0.09941
6525.09,0.10448
6501.95,0.11001
6478.8,0.10220
6455.65,0.10468
6432.51,0.09769
6409.36,0.09850
6386.22,0.10423
6363.07,0.10652
6339.93,0.10130
6316.78,0.10396
6293.64,0.10122
6270.49,0.09991
6247.34,0.10503
6224.2,0.09970
6201.05,0.10476
6177.91,0.10354
6154.76,0.10485
6131.62,0.10230
6108.47,0.10215
6085.33,0.10227
6062.18,0.09900
6039.04,0.09841
6015.89,0.09723
5992.74,0.09829
5969.6,0.09665
5946.45,0.10036
5923.31,0.09557
5900.16,0.09404
5877.02,0.08969
5853.87,0.08680
5830.73,0.08434
5807.58,0.08731
5784.44,0.09219
5761.29,0.09274
5738.14,0.09534
5715,0.09224
5691.85,0.09473
5668.71,0.09525
5645.56,0.09685
5622.42,0.09618
5599.27,0.09987
5576.13,0.09919
5552.98,0.09806
5529.84,0.09639
5506.69,0.09880
5483.54,0.09904
5460.4,0.09971
5437.25,0.09971
5414.11,0.10010
5390.96,0.09868
5367.82,0.09965
5344.67,0.09910
5321.53,0.10208
5298.38,0.10210
5275.24,0.10179
5252.09,0.10209
5228.94,0.10123
5205.8,0.10241
5182.65,0.10120
5159.51,0.10048
5136.36,0.10368
5113.22,0.10248
5090.07,0.10118
5066.93,0.10044
5043.78,0.10297
5020.64,0.10090
4997.49,0.10205
4974.34,0.10233
4951.2,0.10201
4928.05,0.10191
4904.91,0.10384
4881.76,0.10303
4858.62,0.10296
4835.47,0.10149
4812.33,0.10292
4789.18,0.10203
4766.04,0.10420
4742.89,0.10224
4719.74,0.10214
4696.6,0.10017
4673.45,0.10051
4650.31,0.09998
4627.16,0.10018
4604.02,0.10150
4580.87,0.10182
4557.73,0.10250
4534.58,0.10106
4511.44,0.10125
4488.29,0.09855
4465.14,0.09762
4442,0.09357
4418.85,0.08545
4395.71,0.08026
4372.56,0.07651
4349.42,0.07049
4326.27,0.06866
4303.13,0.07293
4279.98,0.07367
4256.84,0.07438
4233.69,0.07323
4210.54,0.07349
4187.4,0.07469
4164.25,0.07490
4141.11,0.07859
4117.96,0.07971
4094.82,0.07689
4071.67,0.07713
4048.53,0.08206
4025.38,0.08236
4002.24,0.08478
3979.09,0.08634
3955.94,0.08743
3932.8,0.08770
3909.65,0.08756
3886.51,0.08820
3863.36,0.08868
3840.22,0.08889
3817.07,0.08974
3793.93,0.09134
3770.78,0.09176
3747.64,0.09243
3724.49,0.09347
3701.34,0.09186
3678.2,0.08415
3655.05,0.08574
3631.91,0.08558
3608.76,0.08298
3585.62,0.08186
3562.47,0.07693
3539.33,0.07563
3516.18,0.07440
3493.04,0.07202
3469.89,0.06972
3446.74,0.06706
3423.6,0.06414
3400.45,0.06711
3377.31,0.07071
3354.16,0.07295
3331.02,0.07137
3307.87,0.06575
3284.73,0.07021
3261.58,0.07491
3238.44,0.07567
3215.29,0.07492
3192.14,0.07500
3169,0.07474
3145.85,0.07358
3122.71,0.07190
3099.56,0.06829
3076.42,0.06492
3053.27,0.06308
3030.13,0.06123
3006.98,0.05864
2983.84,0.05665
2960.69,0.05881
2937.54,0.05922
2914.4,0.06241
2891.25,0.06203
2868.11,0.06197
2844.96,0.06328
2821.82,0.06271
2798.67,0.06413
2775.53,0.06811
2752.38,0.06827
2729.24,0.06723
2706.09,0.07135
2682.94,0.07235
2659.8,0.07304
2636.65,0.07401
2613.51,0.07321
2590.36,0.07320
2567.22,0.07358
2544.07,0.07476
2520.93,0.07615
2497.78,0.07841
2474.64,0.07977
2451.49,0.08013
2428.34,0.07842
2405.2,0.07588
2382.05,0.07385
2358.91,0.07583
2335.76,0.08042
2312.62,0.08220
2289.47,0.08075
2266.33,0.08017
2243.18,0.08019
2220.04,0.08087
2196.89,0.08286
2173.74,0.08514
2150.6,0.08391
2127.45,0.08365
2104.31,0.08262
2081.16,0.08169
2058.02,0.08216
2034.87,0.08334
2011.73,0.08417
1988.58,0.08156
1965.44,0.07824
1942.29,0.07280
1919.14,0.07919
1896,0.08008
1872.85,0.08038
1849.71,0.07599
1826.56,0.06635
1803.42,0.06618
1780.27,0.06097
1757.13,0.05499
1733.98,0.04978
1710.84,0.06949
1687.69,0.06122
1664.54,0.06079
1641.4,0.06018
1618.25,0.06226
1595.11,0.06395
1571.96,0.05833
1548.82,0.05997
1525.67,0.05910
1502.53,0.05638
1479.38,0.05470
1456.24,0.05650
1433.09,0.05553
1409.94,0.05594
1386.8,0.05448
1363.65,0.05467
1340.51,0.05228
1317.36,0.05222
1294.22,0.04753
1271.07,0.06493
1247.93,0.07166
1224.78,0.06794
1201.64,0.06260
1178.49,0.06054
1155.34,0.05825
1132.2,0.05374
1109.05,0.06431
1085.91,0.06669
1062.76,0.06391
1039.62,0.06176
1016.47,0.06511
993.326,0.06084
970.18,0.06116
947.035,0.06381
923.89,0.06259
900.744,0.06173
877.599,0.06124
854.453,0.06133
831.308,0.06193
808.162,0.06291
785.017,0.06009
761.871,0.06020
738.726,0.05060
715.58,0.06033
692.435,0.05795
669.29,0.05854
646.144,0.05520
622.999,0.06069
599.853,0.06509

File: PEVA_0.26_IS_S_240809_R7.dpt
7497.2,0.10032
7474.05,0.10336
7450.91,0.09454
7427.76,0.10306
7404.62,0.09955
7381.47,0.10589
7358.33,0.10832
7335.18,0.10151
7312.04,0.10601
7288.89,0.09495
7265.75,0.11140
7242.6,0.10502
7219.45,0.10314
7196.31,0.10750
7173.16,0.10525
7150.02,0.08946
7126.87,0.10347
7103.73,0.10064
7080.58,0.10407
7057.44,0.10430
7034.29,0.10873
7011.15,0.10153
6988,0.10425
6964.85,0.10583
6941.71,0.10976
6918.56,0.10135
6895.42,0.10410
6872.27,0.10367
6849.13,0.10088
6825.98,0.10384
6802.84,0.10985
6779.69,0.10430
6756.55,0.09949
6733.4,0.10012
6710.25,0.10234
6687.11,0.10619
6663.96,0.10162
6640.82,0.10273
6617.67,0.09745
6594.53,0.09889
6571.38,0.10552
6548.24,0.10498
6525.09,0.09987
6501.95,0.10272
6478.8,0.09777
6455.65,0.10304
6432.51,0.10312
6409.36,0.10460
6386.22,0.10258
6363.07,0.10406
6339.93,0.10348
6316.78,0.09942
6293.64,0.10361
6270.49,0.10071
6247.34,0.10232
6224.2,0.09927
6201.05,0.10218
6177.91,0.09973
6154.76,0.10356
6131.62,0.10051
6108.47,0.09808
6085.33,0.10265
6062.18,0.10138
6039.04,0.10029
6015.89,0.09976
5992.74,0.10395
5969.6,0.10073
5946.45,0.09674
5923.31,0.09695
5900.16,0.09648
5877.02,0.08953
5853.87,0.08959
5830.73,0.08679
5807.58,0.08674
5784.44,0.09297
5761.29,0.09282
5738.14,0.09343
5715,0.09274
5691.85,0.09413
5668.71,0.09503
5645.56,0.09593
5622.42,0.09669
5599.27,0.09661
5576.13,0.09918
5552.98,0.09860
5529.84,0.09934
5506.69,0.09734
5483.54,0.10011
5460.4,0.09943
5437.25,0.10215
5414.11,0.10054
5390.96,0.10002
5367.82,0.10185
5344.67,0.10209
5321.53,0.10241
5298.38,0.10118
5275.24,0.10052
5252.09,0.10190
5228.94,0.10131
5205.8,0.10170
5182.65,0.10239
5159.51,0.10223
5136.36,0.10151
5113.22,0.10174
5090.07,0.10267
5066.93,0.10276
5043.78,0.10293
5020.64,0.10177
4997.49,0.10281
4974.34,0.10128
4951.2,0.10329
4928.05,0.10229
4904.91,0.10289
4881.76,0.10428
4858.62,0.10322
4835.47,0.10161
4812.33,0.10350
4789.18,0.10261
4766.04,0.10259
4742.89,0.10324
4719.74,0.10165
4696.6,0.10080
4673.45,0.10014
4650.31,0.10124
4627.16,0.10026
4604.02,0.10184
4580.87,0.10143
4557.73,0.10261
4534.58,0.10162
4511.44,0.10151
4488.29,0.10036
4465.14,0.09869
4442,0.09342
4418.85,0.08625
4395.71,0.08118
4372.56,0.07675
4349.42,0.07074
4326.27,0.06829
4303.13,0.07353
4279.98,0.07366
4256.84,0.07361
4233.69,0.07324
4210.54,0.07286
4187.4,0.07504
4164.25,0.07446
4141.11,0.07739
4117.96,0.07900
4094.82,0.07708
4071.67,0.07765
4048.53,0.08186
4025.38,0.08252
4002.24,0.08401
3979.09,0.08668
3955.94,0.08734
3932.8,0.08815
3909.65,0.08808
3886.51,0.08902
3863.36,0.08841
3840.22,0.08863
3817.07,0.09027
3793.93,0.09087
3770.78,0.09264
3747.64,0.09181
3724.49,0.09349
3701.34,0.09196
3678.2,0.08537
3655.05,0.08668
3631.91,0.08589
3608.76,0.08340
3585.62,0.08111
3562.47,0.07739
3539.33,0.07576
3516.18,0.07505
3493.04,0.07226
3469.89,0.06943
3446.74,0.06780
3423.6,0.06429
3400.45,0.06777
3377.31,0.07148
3354.16,0.07270
3331.02,0.07184
3307.87,0.06457
3284.73,0.06981
3261.58,0.07548
3238.44,0.07560
3215.29,0.07550
3192.14,0.07507
3169,0.07578
3145.85,0.07402
3122.71,0.07189
3099.56,0.06825
3076.42,0.06459
3053.27,0.06291
3030.13,0.06156
3006.98,0.05871
2983.84,0.05629
2960.69,0.05837
2937.54,0.05948
2914.4,0.06304
2891.25,0.06283
2868.11,0.06249
2844.96,0.06350
2821.82,0.06248
2798.67,0.06457
2775.53,0.06788
2752.38,0.06855
2729.24,0.06764
2706.09,0.07143
2682.94,0.07199
2659.8,0.07325
2636.65,0.07442
2613.51,0.07347
2590.36,0.07333
2567.22,0.07335
2544.07,0.07446
2520.93,0.07595
2497.78,0.07883
2474.64,0.08050
2451.49,0.08075
2428.34,0.07857
2405.2,0.07615
2382.05,0.07472
2358.91,0.07608
2335.76,0.08065
2312.62,0.08277
2289.47,0.08015
2266.33,0.08008
2243.18,0.08040
2220.04,0.08072
2196.89,0.08302
2173.74,0.08477
2150.6,0.08413
2127.45,0.08385
2104.31,0.08271
2081.16,0.08219
2058.02,0.08213
2034.87,0.08323
2011.73,0.08434
1988.58,0.08162
1965.44,0.07829
1942.29,0.07286
1919.14,0.07983
1896,0.08022
1872.85,0.08031
1849.71,0.07571
1826.56,0.06622
1803.42,0.06598
1780.27,0.06077
1757.13,0.05483
1733.98,0.04946
1710.84,0.06984
1687.69,0.06162
1664.54,0.06107
1641.4,0.06080
1618.25,0.06310
1595.11,0.06398
1571.96,0.05836
1548.82,0.05985
1525.67,0.05937
1502.53,0.05677
1479.38,0.05450
1456.24,0.05653
1433.09,0.05586
1409.94,0.05626
1386.8,0.05443
1363.65,0.05457
1340.51,0.05278
1317.36,0.05258
1294.22,0.04758
1271.07,0.06628
1247.93,0.07317
1224.78,0.06846
1201.64,0.06312
1178.49,0.06079
1155.34,0.05833
1132.2,0.05432
1109.05,0.06423
1085.91,0.06693
1062.76,0.06442
1039.62,0.06228
1016.47,0.06604
993.326,0.06095
970.18,0.06192
947.035,0.06400
923.89,0.06327
900.744,0.06184
877.599,0.06163
854.453,0.06177
831.308,0.06180
808.162,0.06293
785.017,0.06075
761.871,0.05951
738.726,0.05086
715.58,0.06090
692.435,0.05909
669.29,0.05980
646.144,0.05777
622.999,0.05982
599.853,0.06805

File: PEVA_0.26_IS_S_240809_R8.dpt
7497.2,0.09353
7474.05,0.09735
7450.91,0.10059
7427.76,0.10296
7404.62,0.10089
7381.47,0.10884
7358.33,0.11165
7335.18,0.10818
7312.04,0.09239
7288.89,0.10722
7265.75,0.09533
7242.6,0.10475
7219.45,0.09282
7196.31,0.10222
7173.16,0.10282
7150.02,0.09864
7126.87,0.09950
7103.73,0.09812
7080.58,0.10327
7057.44,0.09771
7034.29,0.09947
7011.15,0.10057
6988,0.10312
6964.85,0.10040
6941.71,0.10229
6918.56,0.10344
6895.42,0.09654
6872.27,0.10605
6849.13,0.09973
6825.98,0.10366
6802.84,0.09246
6779.69,0.10361
6756.55,0.11131
6733.4,0.10238
6710.25,0.10540
6687.11,0.09997
6663.96,0.09872
6640.82,0.10632
6617.67,0.09700
6594.53,0.10475
6571.38,0.10231
6548.24,0.10127
6525.09,0.10409
6501.95,0.10380
6478.8,0.10088
6455.65,0.10480
6432.51,0.10219
6409.36,0.10215
6386.22,0.10224
6363.07,0.10140
6339.93,0.10091
6316.78,0.10415
6293.64,0.10059
6270.49,0.10309
6247.34,0.10038
6224.2,0.10361
6201.05,0.10464
6177.91,0.10147
6154.76,0.10517
6131.62,0.10507
6108.47,0.10201
6085.33,0.10071
6062.18,0.09933
6039.04,0.09770
6015.89,0.09882
5992.74,0.09943
5969.6,0.09926
5946.45,0.09949
5923.31,0.09646
5900.16,0.09338
5877.02,0.09080
5853.87,0.08991
5830.73,0.08455
5807.58,0.08652
5784.44,0.08929
5761.29,0.09451
5738.14,0.09246
5715,0.09160
5691.85,0.09261
5668.71,0.09502
5645.56,0.09534
5622.42,0.09698
5599.27,0.09776
5576.13,0.09919
5552.98,0.10023
5529.84,0.09772
5506.69,0.10017
5483.54,0.09724
5460.4,0.09961
5437.25,0.09983
5414.11,0.10041
5390.96,0.09805
5367.82,0.09918
5344.67,0.10216
5321.53,0.10159
5298.38,0.10070
5275.24,0.09932
5252.09,0.10288
5228.94,0.10064
5205.8,0.10278
5182.65,0.10209
5159.51,0.10223
5136.36,0.10181
5113.22,0.10162
5090.07,0.10190
5066.93,0.10138
5043.78,0.10226
5020.64,0.10184
4997.49,0.10280
4974.34,0.10160
4951.2,0.10184
4928.05,0.10311
4904.91,0.10238
4881.76,0.10113
4858.62,0.10290
4835.47,0.10205
4812.33,0.10296
4789.18,0.10289
4766.04,0.10357
4742.89,0.10275
4719.74,0.10091
4696.6,0.09969
4673.45,0.10015
4650.31,0.10164
4627.16,0.09976
4604.02,0.10144
4580.87,0.10178
4557.73,0.10091
4534.58,0.10129
4511.44,0.10140
4488.29,0.09879
4465.14,0.09829
4442,0.09330
4418.85,0.08595
4395.71,0.08077
4372.56,0.07636
4349.42,0.06968
4326.27,0.06913
4303.13,0.07266
4279.98,0.07376
4256.84,0.07335
4233.69,0.07322
4210.54,0.07356
4187.4,0.07538
4164.25,0.07446
4141.11,0.07793
4117.96,0.07924
4094.82,0.07610
4071.67,0.07620
4048.53,0.08150
4025.38,0.08184
4002.24,0.08358
3979.09,0.08663
3955.94,0.08780
3932.8,0.08738
3909.65,0.08801
3886.51,0.08787
3863.36,0.08810
3840.22,0.08814
3817.07,0.09053
3793.93,0.09063
3770.78,0.09202
3747.64,0.09178
3724.49,0.09256
3701.34,0.09082
3678.2,0.08427
3655.05,0.08591
3631.91,0.08510
3608.76,0.08249
3585.62,0.08025
3562.47,0.07781
3539.33,0.07602
3516.18,0.07455
3493.04,0.07317
3469.89,0.06947
3446.74,0.06669
3423.6,0.06441
3400.45,0.06743
3377.31,0.07137
3354.16,0.07297
3331.02,0.07074
3307.87,0.06562
3284.73,0.06969
3261.58,0.07477
3238.44,0.07583
3215.29,0.07537
3192.14,0.07452
3169,0.07368
3145.85,0.07390
3122.71,0.07178
3099.56,0.06805
3076.42,0.06475
3053.27,0.06208
3030.13,0.06124
3006.98,0.05830
2983.84,0.05557
2960.69,0.05810
2937.54,0.05858
2914.4,0.06228
2891.25,0.06217
2868.11,0.06195
2844.96,0.06319
2821.82,0.06235
2798.67,0.06409
2775.53,0.06753
2752.38,0.06744
2729.24,0.06717
2706.09,0.07153
2682.94,0.07193
2659.8,0.07270
2636.65,0.07374
2613.51,0.07299
2590.36,0.07319
2567.22,0.07329
2544.07,0.07461
2520.93,0.07555
2497.78,0.07813
2474.64,0.07945
2451.49,0.07996
2428.34,0.07827
2405.2,0.07560
2382.05,0.07373
2358.91,0.07571
2335.76,0.07974
2312.62,0.08200
2289.47,0.08006
2266.33,0.07926
2243.18,0.07955
2220.04,0.08032
2196.89,0.08265
2173.74,0.08456
2150.6,0.08354
2127.45,0.08284
2104.31,0.08254
2081.16,0.08162
2058.02,0.08177
2034.87,0.08260
2011.73,0.08359
1988.58,0.08127
1965.44,0.07754
1942.29,0.07248
1919.14,0.07927
1896,0.07980
1872.85,0.07972
1849.71,0.07558
1826.56,0.06591
1803.42,0.06572
1780.27,0.06117
1757.13,0.05430
1733.98,0.04947
1710.84,0.06874
1687.69,0.06121
1664.54,0.06091
1641.4,0.06055
1618.25,0.06229
1595.11,0.06390
1571.96,0.05836
1548.82,0.05981
1525.67,0.05870
1502.53,0.05605
1479.38,0.05445
1456.24,0.05590
1433.09,0.05479
1409.94,0.05616
1386.8,0.05439
1363.65,0.05429
1340.51,0.05225
1317.36,0.05253
1294.22,0.04756
1271.07,0.06469
1247.93,0.07219
1224.78,0.06776
1201.64,0.06243
1178.49,0.06031
1155.34,0.05905
1132.2,0.05328
1109.05,0.06326
1085.91,0.06684
1062.76,0.06442
1039.62,0.06196
1016.47,0.06540
993.326,0.06120
970.18,0.06130
947.035,0.06421
923.89,0.06262
900.744,0.06222
877.599,0.06102
854.453,0.06130
831.308,0.06161
808.162,0.06243
785.017,0.06041
761.871,0.05874
738.726,0.05091
715.58,0.05961
692.435,0.05930
669.29,0.05944
646.144,0.05651
622.999,0.06131
599.853,0.06755