Folder: fsri_materials_database/01_Data/PEVA/FTIR/IS (part 19)

File: PEVA_0.26_IS_T_240809_R10.dpt
7497.2,0.04152
7474.05,0.03494
7450.91,0.03195
7427.76,0.04386
7404.62,0.03877
7381.47,0.03645
7358.33,0.02933
7335.18,0.02844
7312.04,0.03645
7288.89,0.03934
7265.75,0.04075
7242.6,0.03616
7219.45,0.03484
7196.31,0.03188
7173.16,0.03580
7150.02,0.03661
7126.87,0.02605
7103.73,0.02763
7080.58,0.03608
7057.44,0.02285
7034.29,0.04025
7011.15,0.04278
6988,0.03649
6964.85,0.03583
6941.71,0.03749
6918.56,0.01863
6895.42,0.03163
6872.27,0.03229
6849.13,0.03078
6825.98,0.03590
6802.84,0.03833
6779.69,0.02962
6756.55,0.03085
6733.4,0.02827
6710.25,0.03170
6687.11,0.03271
6663.96,0.02811
6640.82,0.03463
6617.67,0.03277
6594.53,0.03323
6571.38,0.03174
6548.24,0.03092
6525.09,0.03392
6501.95,0.02932
6478.8,0.03085
6455.65,0.03396
6432.51,0.02988
6409.36,0.03283
6386.22,0.02669
6363.07,0.02646
6339.93,0.02935
6316.78,0.03533
6293.64,0.03037
6270.49,0.03276
6247.34,0.03139
6224.2,0.02760
6201.05,0.02935
6177.91,0.02859
6154.76,0.02655
6131.62,0.03085
6108.47,0.03239
6085.33,0.02679
6062.18,0.02966
6039.04,0.03092
6015.89,0.02842
5992.74,0.02855
5969.6,0.03147
5946.45,0.02868
5923.31,0.03124
5900.16,0.02805
5877.02,0.03031
5853.87,0.03117
5830.73,0.02969
5807.58,0.03004
5784.44,0.03159
5761.29,0.03068
5738.14,0.03233
5715,0.02936
5691.85,0.03018
5668.71,0.03225
5645.56,0.03162
5622.42,0.03134
5599.27,0.03072
5576.13,0.03345
5552.98,0.03042
5529.84,0.02855
5506.69,0.03140
5483.54,0.02927
5460.4,0.03244
5437.25,0.03152
5414.11,0.03035
5390.96,0.03024
5367.82,0.03218
5344.67,0.02956
5321.53,0.03031
5298.38,0.03127
5275.24,0.03115
5252.09,0.03046
5228.94,0.03175
5205.8,0.02930
5182.65,0.03070
5159.51,0.03040
5136.36,0.03080
5113.22,0.03106
5090.07,0.03024
5066.93,0.02938
5043.78,0.03149
5020.64,0.03097
4997.49,0.03089
4974.34,0.03143
4951.2,0.03027
4928.05,0.03091
4904.91,0.03100
4881.76,0.03120
4858.62,0.03077
4835.47,0.03033
4812.33,0.03180
4789.18,0.03045
4766.04,0.03099
4742.89,0.03115
4719.74,0.03063
4696.6,0.03001
4673.45,0.03164
4650.31,0.03130
4627.16,0.03031
4604.02,0.03117
4580.87,0.03161
4557.73,0.03133
4534.58,0.03076
4511.44,0.03138
4488.29,0.03087
4465.14,0.03106
4442,0.02926
4418.85,0.03093
4395.71,0.03087
4372.56,0.03066
4349.42,0.03078
4326.27,0.03120
4303.13,0.03054
4279.98,0.03012
4256.84,0.02994
4233.69,0.02963
4210.54,0.03121
4187.4,0.03050
4164.25,0.03005
4141.11,0.03101
4117.96,0.03055
4094.82,0.03025
4071.67,0.03074
4048.53,0.03054
4025.38,0.03121
4002.24,0.02979
3979.09,0.03120
3955.94,0.03039
3932.8,0.03036
3909.65,0.03066
3886.51,0.03102
3863.36,0.02970
3840.22,0.03070
3817.07,0.03158
3793.93,0.03105
3770.78,0.03115
3747.64,0.02934
3724.49,0.03046
3701.34,0.02958
3678.2,0.03050
3655.05,0.02905
3631.91,0.02888
3608.76,0.02862
3585.62,0.02909
3562.47,0.02843
3539.33,0.02760
3516.18,0.02745
3493.04,0.02713
3469.89,0.02685
3446.74,0.02659
3423.6,0.02783
3400.45,0.02681
3377.31,0.02656
3354.16,0.02682
3331.02,0.02722
3307.87,0.02753
3284.73,0.02656
3261.58,0.02694
3238.44,0.02711
3215.29,0.02690
3192.14,0.02809
3169,0.02734
3145.85,0.02777
3122.71,0.02750
3099.56,0.02749
3076.42,0.02689
3053.27,0.02715
3030.13,0.02772
3006.98,0.02736
2983.84,0.02653
2960.69,0.02620
2937.54,0.02615
2914.4,0.02623
2891.25,0.02692
2868.11,0.02710
2844.96,0.02741
2821.82,0.02775
2798.67,0.02780
2775.53,0.02784
2752.38,0.02806
2729.24,0.02735
2706.09,0.02784
2682.94,0.02734
2659.8,0.02796
2636.65,0.02782
2613.51,0.02789
2590.36,0.02789
2567.22,0.02713
2544.07,0.02735
2520.93,0.02765
2497.78,0.02782
2474.64,0.02768
2451.49,0.02728
2428.34,0.02778
2405.2,0.02768
2382.05,0.02735
2358.91,0.02797
2335.76,0.02734
2312.62,0.02810
2289.47,0.02719
2266.33,0.02703
2243.18,0.02719
2220.04,0.02658
2196.89,0.02734
2173.74,0.02623
2150.6,0.02665
2127.45,0.02662
2104.31,0.02642
2081.16,0.02644
2058.02,0.02623
2034.87,0.02627
2011.73,0.02599
1988.58,0.02603
1965.44,0.02625
1942.29,0.02629
1919.14,0.02606
1896,0.02603
1872.85,0.02592
1849.71,0.02556
1826.56,0.02513
1803.42,0.02479
1780.27,0.02394
1757.13,0.02230
1733.98,0.02442
1710.84,0.02493
1687.69,0.02309
1664.54,0.02242
1641.4,0.02249
1618.25,0.02274
1595.11,0.02299
1571.96,0.02239
1548.82,0.02224
1525.67,0.02327
1502.53,0.02221
1479.38,0.02226
1456.24,0.02198
1433.09,0.02156
1409.94,0.02146
1386.8,0.02173
1363.65,0.02118
1340.51,0.02066
1317.36,0.01990
1294.22,0.02063
1271.07,0.02192
1247.93,0.02309
1224.78,0.02231
1201.64,0.02183
1178.49,0.02108
1155.34,0.02076
1132.2,0.02121
1109.05,0.02270
1085.91,0.02260
1062.76,0.02369
1039.62,0.02364
1016.47,0.02356
993.326,0.02467
970.18,0.02374
947.035,0.02306
923.89,0.02252
900.744,0.02247
877.599,0.02182
854.453,0.02261
831.308,0.02217
808.162,0.02237
785.017,0.02155
761.871,0.02072
738.726,0.02002
715.58,0.01984
692.435,0.02024
669.29,0.01738
646.144,0.01902
622.999,0.01758
599.853,0.02214

File: PEVA_0.26_IS_T_240809_R14.dpt
7497.2,0.03699
7474.05,0.02661
7450.91,0.03190
7427.76,0.03519
7404.62,0.03280
7381.47,0.04695
7358.33,0.02871
7335.18,0.04399
7312.04,0.03854
7288.89,0.02706
7265.75,0.03483
7242.6,0.02813
7219.45,0.03442
7196.31,0.04052
7173.16,0.03231
7150.02,0.03974
7126.87,0.03092
7103.73,0.02826
7080.58,0.02436
7057.44,0.03282
7034.29,0.03718
7011.15,0.03906
6988,0.03170
6964.85,0.03951
6941.71,0.03733
6918.56,0.03219
6895.42,0.03600
6872.27,0.03998
6849.13,0.04152
6825.98,0.03607
6802.84,0.02990
6779.69,0.03854
6756.55,0.03707
6733.4,0.03452
6710.25,0.02985
6687.11,0.03089
6663.96,0.03448
6640.82,0.03567
6617.67,0.03296
6594.53,0.03250
6571.38,0.02697
6548.24,0.03819
6525.09,0.03055
6501.95,0.03432
6478.8,0.03238
6455.65,0.02733
6432.51,0.02630
6409.36,0.03207
6386.22,0.03308
6363.07,0.03010
6339.93,0.02865
6316.78,0.02796
6293.64,0.03182
6270.49,0.03175
6247.34,0.03586
6224.2,0.02897
6201.05,0.03457
6177.91,0.03041
6154.76,0.02917
6131.62,0.03403
6108.47,0.03540
6085.33,0.03105
6062.18,0.02785
6039.04,0.03262
6015.89,0.02933
5992.74,0.03338
5969.6,0.02907
5946.45,0.03372
5923.31,0.03006
5900.16,0.03182
5877.02,0.02887
5853.87,0.03087
5830.73,0.03047
5807.58,0.03123
5784.44,0.03116
5761.29,0.02896
5738.14,0.02895
5715,0.02879
5691.85,0.02685
5668.71,0.02961
5645.56,0.03039
5622.42,0.02797
5599.27,0.03162
5576.13,0.03061
5552.98,0.03008
5529.84,0.02995
5506.69,0.03156
5483.54,0.03021
5460.4,0.02979
5437.25,0.02997
5414.11,0.03092
5390.96,0.03118
5367.82,0.02959
5344.67,0.02987
5321.53,0.03111
5298.38,0.03117
5275.24,0.02855
5252.09,0.03096
5228.94,0.03046
5205.8,0.03082
5182.65,0.03276
5159.51,0.02897
5136.36,0.03257
5113.22,0.02921
5090.07,0.02986
5066.93,0.02969
5043.78,0.03120
5020.64,0.03087
4997.49,0.02962
4974.34,0.03025
4951.2,0.03207
4928.05,0.03069
4904.91,0.03143
4881.76,0.03027
4858.62,0.02979
4835.47,0.03033
4812.33,0.03047
4789.18,0.02973
4766.04,0.03063
4742.89,0.03202
4719.74,0.03100
4696.6,0.03062
4673.45,0.03076
4650.31,0.02978
4627.16,0.03004
4604.02,0.02955
4580.87,0.03022
4557.73,0.03159
4534.58,0.03022
4511.44,0.03089
4488.29,0.03055
4465.14,0.03034
4442,0.03030
4418.85,0.02961
4395.71,0.03039
4372.56,0.03047
4349.42,0.03022
4326.27,0.03027
4303.13,0.02982
4279.98,0.02979
4256.84,0.03052
4233.69,0.03075
4210.54,0.02992
4187.4,0.03059
4164.25,0.03055
4141.11,0.02984
4117.96,0.03064
4094.82,0.02980
4071.67,0.03054
4048.53,0.02997
4025.38,0.03001
4002.24,0.03021
3979.09,0.02946
3955.94,0.03004
3932.8,0.03055
3909.65,0.03053
3886.51,0.03048
3863.36,0.03088
3840.22,0.03024
3817.07,0.03031
3793.93,0.02980
3770.78,0.03028
3747.64,0.03084
3724.49,0.02913
3701.34,0.02935
3678.2,0.02933
3655.05,0.02953
3631.91,0.02912
3608.76,0.02839
3585.62,0.02788
3562.47,0.02752
3539.33,0.02746
3516.18,0.02727
3493.04,0.02710
3469.89,0.02660
3446.74,0.02687
3423.6,0.02688
3400.45,0.02635
3377.31,0.02578
3354.16,0.02570
3331.02,0.02617
3307.87,0.02671
3284.73,0.02656
3261.58,0.02664
3238.44,0.02644
3215.29,0.02732
3192.14,0.02702
3169,0.02711
3145.85,0.02734
3122.71,0.02759
3099.56,0.02660
3076.42,0.02780
3053.27,0.02661
3030.13,0.02699
3006.98,0.02600
2983.84,0.02631
2960.69,0.02533
2937.54,0.02538
2914.4,0.02652
2891.25,0.02688
2868.11,0.02676
2844.96,0.02755
2821.82,0.02755
2798.67,0.02739
2775.53,0.02729
2752.38,0.02742
2729.24,0.02744
2706.09,0.02743
2682.94,0.02785
2659.8,0.02690
2636.65,0.02751
2613.51,0.02723
2590.36,0.02710
2567.22,0.02729
2544.07,0.02705
2520.93,0.02721
2497.78,0.02730
2474.64,0.02682
2451.49,0.02707
2428.34,0.02695
2405.2,0.02691
2382.05,0.02656
2358.91,0.02683
2335.76,0.02719
2312.62,0.02663
2289.47,0.02667
2266.33,0.02653
2243.18,0.02651
2220.04,0.02657
2196.89,0.02604
2173.74,0.02642
2150.6,0.02617
2127.45,0.02602
2104.31,0.02621
2081.16,0.02611
2058.02,0.02583
2034.87,0.02594
2011.73,0.02600
1988.58,0.02595
1965.44,0.02592
1942.29,0.02552
1919.14,0.02570
1896,0.02554
1872.85,0.02542
1849.71,0.02482
1826.56,0.02457
1803.42,0.02403
1780.27,0.02367
1757.13,0.02177
1733.98,0.02390
1710.84,0.02444
1687.69,0.02331
1664.54,0.02213
1641.4,0.02222
1618.25,0.02289
1595.11,0.02258
1571.96,0.02200
1548.82,0.02179
1525.67,0.02274
1502.53,0.02236
1479.38,0.02182
1456.24,0.02160
1433.09,0.02161
1409.94,0.02151
1386.8,0.02113
1363.65,0.02133
1340.51,0.02096
1317.36,0.02026
1294.22,0.02096
1271.07,0.02179
1247.93,0.02238
1224.78,0.02179
1201.64,0.02159
1178.49,0.02093
1155.34,0.02008
1132.2,0.02069
1109.05,0.02244
1085.91,0.02228
1062.76,0.02347
1039.62,0.02407
1016.47,0.02285
993.326,0.02434
970.18,0.02372
947.035,0.02298
923.89,0.02322
900.744,0.02287
877.599,0.02177
854.453,0.02169
831.308,0.02193
808.162,0.02139
785.017,0.02104
761.871,0.02072
738.726,0.02065
715.58,0.02044
692.435,0.01955
669.29,0.01732
646.144,0.01749
622.999,0.02032
599.853,0.01761

File: PEVA_0.26_IS_Trans_S_240819_R1.dpt
7496.91,0.94280
7473.76,0.93096
7450.62,0.93565
7427.47,0.92186
7404.33,0.93155
7381.18,0.91390
7358.04,0.91627
7334.89,0.93140
7311.75,0.91847
7288.61,0.92254
7265.46,0.91076
7242.32,0.91267
7219.17,0.91605
7196.03,0.90753
7172.88,0.91182
7149.74,0.91533
7126.59,0.90729
7103.45,0.92534
7080.3,0.90693
7057.16,0.91251
7034.02,0.91214
7010.87,0.91384
6987.73,0.90978
6964.58,0.92079
6941.44,0.92758
6918.29,0.92302
6895.15,0.91389
6872,0.92135
6848.86,0.92042
6825.71,0.91990
6802.57,0.91623
6779.43,0.92822
6756.28,0.92220
6733.14,0.93176
6709.99,0.93682
6686.85,0.92521
6663.7,0.92941
6640.56,0.93109
6617.41,0.92268
6594.27,0.92230
6571.12,0.92171
6547.98,0.93369
6524.84,0.93317
6501.69,0.92726
6478.55,0.93160
6455.4,0.93013
6432.26,0.93450
6409.11,0.93119
6385.97,0.93383
6362.82,0.93722
6339.68,0.93797
6316.53,0.92950
6293.39,0.92909
6270.24,0.92709
6247.1,0.93094
6223.96,0.93335
6200.81,0.93409
6177.67,0.92488
6154.52,0.92290
6131.38,0.92190
6108.23,0.92143
6085.09,0.91466
6061.94,0.90314
6038.8,0.89192
6015.65,0.87673
5992.51,0.89258
5969.37,0.89608
5946.22,0.88679
5923.08,0.87079
5899.93,0.84338
5876.79,0.80798
5853.64,0.76967
5830.5,0.72043
5807.35,0.75356
5784.21,0.80251
5761.06,0.81652
5737.92,0.81492
5714.78,0.81536
5691.63,0.81703
5668.49,0.83833
5645.34,0.84216
5622.2,0.85251
5599.05,0.86441
5575.91,0.86837
5552.76,0.87170
5529.62,0.87260
5506.47,0.87214
5483.33,0.87564
5460.19,0.86777
5437.04,0.87610
5413.9,0.87134
5390.75,0.88452
5367.61,0.89312
5344.46,0.87842
5321.32,0.89736
5298.17,0.89682
5275.03,0.89786
5251.88,0.89066
5228.74,0.89293
5205.6,0.88699
5182.45,0.89766
5159.31,0.89504
5136.16,0.89798
5113.02,0.89714
5089.87,0.90088
5066.73,0.90222
5043.58,0.90382
5020.44,0.90409
4997.29,0.90454
4974.15,0.90536
4951.01,0.90632
4927.86,0.90482
4904.72,0.90639
4881.57,0.90534
4858.43,0.90599
4835.28,0.90703
4812.14,0.90418
4788.99,0.90281
4765.85,0.90307
4742.7,0.90165
4719.56,0.88954
4696.42,0.87459
4673.27,0.87264
4650.13,0.87896
4626.98,0.86806
4603.84,0.88686
4580.69,0.88401
4557.55,0.89024
4534.4,0.88787
4511.26,0.88039
4488.11,0.86053
4464.97,0.84474
4441.83,0.79504
4418.68,0.69773
4395.54,0.62018
4372.39,0.54104
4349.25,0.41242
4326.1,0.37564
4302.96,0.47851
4279.81,0.47289
4256.67,0.49000
4233.52,0.48219
4210.38,0.46788
4187.24,0.50703
4164.09,0.50134
4140.95,0.56216
4117.8,0.58587
4094.66,0.54825
4071.51,0.54022
4048.37,0.61807
4025.22,0.63068
4002.08,0.65428
3978.93,0.68846
3955.79,0.70272
3932.65,0.69746
3909.5,0.70648
3886.36,0.70517
3863.21,0.69981
3840.07,0.69288
3816.92,0.71136
3793.78,0.74922
3770.63,0.75016
3747.49,0.72026
3724.34,0.74926
3701.2,0.74030
3678.06,0.65320
3654.91,0.68399
3631.77,0.67363
3608.62,0.64021
3585.48,0.61405
3562.33,0.57350
3539.19,0.55099
3516.04,0.53487
3492.9,0.48879
3469.75,0.42731
3446.61,0.36736
3423.47,0.28972
3400.32,0.38496
3377.18,0.46889
3354.03,0.50400
3330.89,0.49049
3307.74,0.35080
3284.6,0.45600
3261.45,0.55853
3238.31,0.56872
3215.16,0.55408
3192.02,0.54087
3168.87,0.54519
3145.73,0.53416
3122.59,0.49158
3099.44,0.41734
3076.3,0.33480
3053.15,0.27148
3030.01,0.24177
3006.86,0.08401
2983.72,-0.00007
2960.57,0.00026
2937.43,0.00080
2914.28,0.00069
2891.14,0.00030
2868,0.00057
2844.85,0.00043
2821.71,0.06155
2798.56,0.21681
2775.42,0.34534
2752.27,0.36302
2729.13,0.33929
2705.98,0.44322
2682.84,0.46123
2659.69,0.48271
2636.55,0.50100
2613.41,0.48587
2590.26,0.48667
2567.12,0.49524
2543.97,0.51562
2520.83,0.54225
2497.68,0.58998
2474.54,0.60927
2451.39,0.61622
2428.25,0.58705
2405.1,0.54434
2381.96,0.49952
2358.82,0.44961
2335.67,0.53591
2312.53,0.60762
2289.38,0.61617
2266.24,0.61462
2243.09,0.62240
2219.95,0.63187
2196.8,0.66860
2173.66,0.69357
2150.51,0.68506
2127.37,0.67824
2104.23,0.67174
2081.08,0.65815
2057.94,0.66061
2034.79,0.67725
2011.65,0.69482
1988.5,0.66127
1965.36,0.60724
1942.21,0.51607
1919.07,0.62760
1895.92,0.64597
1872.78,0.65161
1849.64,0.59257
1826.49,0.41312
1803.35,0.42438
1780.2,0.29867
1757.06,0.08659
1733.91,0.00060
1710.77,0.00058
1687.62,0.04946
1664.48,0.18378
1641.33,0.19813
1618.19,0.29938
1595.05,0.34917
1571.9,0.16347
1548.76,0.26574
1525.61,0.24607
1502.47,0.07611
1479.32,0.03868
1456.18,0.00042
1433.03,0.00018
1409.89,0.00018
1386.74,0.00029
1363.6,0.00173
1340.46,0.00026
1317.31,0.00048
1294.17,0.00017
1271.02,0.00012
1247.88,0.00039
1224.73,0.00037
1201.59,0.00157
1178.44,0.01209
1155.3,0.00562
1132.15,0.00023
1109.01,0.00057
1085.87,0.00015
1062.72,0.01450
1039.58,0.02326
1016.43,0.00075
993.287,0.00252
970.142,0.00003
946.998,0.00067
923.853,0.00409
900.709,0.02621
877.564,0.00485
854.42,0.03941
831.275,0.02954
808.131,0.16215
784.986,0.10220
761.842,0.10249
738.697,0.00552
715.552,0.02276
692.408,0.00164
669.263,0.01280
646.119,0.00087
622.974,0.00173
599.83,0.00363

File: PEVA_0.26_IS_Trans_S_240819_R2.dpt
7496.91,0.93216
7473.76,0.92659
7450.62,0.92439
7427.47,0.92433
7404.33,0.94742
7381.18,0.91900
7358.04,0.92601
7334.89,0.94862
7311.75,0.92212
7288.61,0.91735
7265.46,0.92583
7242.32,0.91044
7219.17,0.91350
7196.03,0.92491
7172.88,0.91137
7149.74,0.91670
7126.59,0.90768
7103.45,0.91448
7080.3,0.92287
7057.16,0.92136
7034.02,0.92079
7010.87,0.90259
6987.73,0.91982
6964.58,0.91679
6941.44,0.92230
6918.29,0.91380
6895.15,0.91954
6872,0.91933
6848.86,0.92312
6825.71,0.92023
6802.57,0.93314
6779.43,0.93309
6756.28,0.92958
6733.14,0.92595
6709.99,0.93026
6686.85,0.93560
6663.7,0.92828
6640.56,0.93030
6617.41,0.92897
6594.27,0.94243
6571.12,0.93463
6547.98,0.93398
6524.84,0.93069
6501.69,0.93236
6478.55,0.93529
6455.4,0.93649
6432.26,0.93464
6409.11,0.93007
6385.97,0.93638
6362.82,0.93362
6339.68,0.93391
6316.53,0.93722
6293.39,0.93094
6270.24,0.93498
6247.1,0.93403
6223.96,0.93110
6200.81,0.93046
6177.67,0.93641
6154.52,0.93201
6131.38,0.92622
6108.23,0.92850
6085.09,0.91533
6061.94,0.91299
6038.8,0.89126
6015.65,0.88520
5992.51,0.89326
5969.37,0.90226
5946.22,0.89377
5923.08,0.87038
5899.93,0.84634
5876.79,0.81159
5853.64,0.77731
5830.5,0.71996
5807.35,0.75710
5784.21,0.80447
5761.06,0.82291
5737.92,0.81283
5714.78,0.81922
5691.63,0.81969
5668.49,0.83963
5645.34,0.84851
5622.2,0.85895
5599.05,0.86571
5575.91,0.87285
5552.76,0.87654
5529.62,0.87906
5506.47,0.87775
5483.33,0.87830
5460.19,0.87078
5437.04,0.87796
5413.9,0.87504
5390.75,0.88624
5367.61,0.89071
5344.46,0.88100
5321.32,0.89942
5298.17,0.90190
5275.03,0.90046
5251.88,0.89262
5228.74,0.89429
5205.6,0.89050
5182.45,0.90079
5159.31,0.90017
5136.16,0.90216
5113.02,0.90132
5089.87,0.90235
5066.73,0.90746
5043.58,0.90717
5020.44,0.90660
4997.29,0.90657
4974.15,0.90936
4951.01,0.90909
4927.86,0.91033
4904.72,0.90946
4881.57,0.90816
4858.43,0.90907
4835.28,0.90897
4812.14,0.90747
4788.99,0.90509
4765.85,0.90566
4742.7,0.90428
4719.56,0.89196
4696.42,0.87953
4673.27,0.87483
4650.13,0.88128
4626.98,0.87096
4603.84,0.89085
4580.69,0.88552
4557.55,0.89344
4534.4,0.88988
4511.26,0.88370
4488.11,0.86281
4464.97,0.84667
4441.83,0.79725
4418.68,0.69883
4395.54,0.62022
4372.39,0.54192
4349.25,0.41212
4326.1,0.37646
4302.96,0.47902
4279.81,0.47250
4256.67,0.48978
4233.52,0.48209
4210.38,0.46778
4187.24,0.50755
4164.09,0.50043
4140.95,0.56183
4117.8,0.58635
4094.66,0.54895
4071.51,0.54148
4048.37,0.61864
4025.22,0.63198
4002.08,0.65540
3978.93,0.69101
3955.79,0.70537
3932.65,0.70024
3909.5,0.70920
3886.36,0.70992
3863.21,0.70417
3840.07,0.70007
3816.92,0.71813
3793.78,0.75142
3770.63,0.75352
3747.49,0.72937
3724.34,0.76041
3701.2,0.74981
3678.06,0.66427
3654.91,0.69060
3631.77,0.68339
3608.62,0.64918
3585.48,0.62277
3562.33,0.58119
3539.19,0.55765
3516.04,0.54054
3492.9,0.49516
3469.75,0.43337
3446.61,0.37120
3423.47,0.29312
3400.32,0.38732
3377.18,0.47203
3354.03,0.50716
3330.89,0.49298
3307.74,0.35145
3284.6,0.45806
3261.45,0.56076
3238.31,0.57243
3215.16,0.55587
3192.02,0.54430
3168.87,0.54676
3145.73,0.53567
3122.59,0.49333
3099.44,0.41867
3076.3,0.33508
3053.15,0.27191
3030.01,0.24220
3006.86,0.08400
2983.72,0.00077
2960.57,0.00069
2937.43,0.00094
2914.28,0.00047
2891.14,0.00073
2868,0.00063
2844.85,0.00081
2821.71,0.06129
2798.56,0.21687
2775.42,0.34565
2752.27,0.36379
2729.13,0.33929
2705.98,0.44401
2682.84,0.46202
2659.69,0.48390
2636.55,0.50199
2613.41,0.48694
2590.26,0.48707
2567.12,0.49590
2543.97,0.51753
2520.83,0.54442
2497.68,0.59130
2474.54,0.61041
2451.39,0.61770
2428.25,0.58856
2405.1,0.54603
2381.96,0.50908
2358.82,0.50418
2335.67,0.58358
2312.53,0.63319
2289.38,0.62192
2266.24,0.61895
2243.09,0.62406
2219.95,0.63250
2196.8,0.66956
2173.66,0.69667
2150.51,0.68850
2127.37,0.68111
2104.23,0.67276
2081.08,0.65853
2057.94,0.66182
2034.79,0.68083
2011.65,0.69842
1988.5,0.66424
1965.36,0.60882
1942.21,0.51749
1919.07,0.62983
1895.92,0.64827
1872.78,0.65481
1849.64,0.59579
1826.49,0.41510
1803.35,0.42646
1780.2,0.29925
1757.06,0.08652
1733.91,0.00036
1710.77,0.00037
1687.62,0.04923
1664.48,0.18474
1641.33,0.19890
1618.19,0.30262
1595.05,0.35141
1571.9,0.16440
1548.76,0.26697
1525.61,0.24860
1502.47,0.07678
1479.32,0.03867
1456.18,0.00050
1433.03,0.00052
1409.89,-0.00005
1386.74,0.00023
1363.6,0.00131
1340.46,0.00043
1317.31,0.00021
1294.17,0.00027
1271.02,0.00070
1247.88,0.00027
1224.73,0.00065
1201.59,0.00161
1178.44,0.01186
1155.3,0.00620
1132.15,0.00024
1109.01,0.00035
1085.87,0.00062
1062.72,0.01361
1039.58,0.02288
1016.43,0.00082
993.287,0.00186
970.142,0.00044
946.998,0.00055
923.853,0.00359
900.709,0.02585
877.564,0.00449
854.42,0.03983
831.275,0.02869
808.131,0.16263
784.986,0.10266
761.842,0.10218
738.697,0.00464
715.552,0.02212
692.408,0.00088
669.263,0.01405
646.119,0.00033
622.974,0.00120
599.83,0.00460

File: PEVA_0.26_IS_Trans_S_240819_R3.dpt
7496.91,0.93303
7473.76,0.92287
7450.62,0.93754
7427.47,0.92071
7404.33,0.91824
7381.18,0.91540
7358.04,0.91855
7334.89,0.92520
7311.75,0.91191
7288.61,0.91821
7265.46,0.90489
7242.32,0.91219
7219.17,0.91351
7196.03,0.90340
7172.88,0.90141
7149.74,0.90639
7126.59,0.91035
7103.45,0.90534
7080.3,0.90987
7057.16,0.91021
7034.02,0.90318
7010.87,0.89950
6987.73,0.91569
6964.58,0.91926
6941.44,0.91015
6918.29,0.91660
6895.15,0.92204
6872,0.91207
6848.86,0.91708
6825.71,0.91541
6802.57,0.91925
6779.43,0.91441
6756.28,0.92473
6733.14,0.92285
6709.99,0.92696
6686.85,0.92593
6663.7,0.92569
6640.56,0.92365
6617.41,0.92681
6594.27,0.92104
6571.12,0.92285
6547.98,0.92801
6524.84,0.91976
6501.69,0.92752
6478.55,0.92640
6455.4,0.92903
6432.26,0.92957
6409.11,0.92614
6385.97,0.92954
6362.82,0.92890
6339.68,0.92785
6316.53,0.92784
6293.39,0.93131
6270.24,0.92511
6247.1,0.92634
6223.96,0.92478
6200.81,0.92829
6177.67,0.92483
6154.52,0.92081
6131.38,0.91931
6108.23,0.91643
6085.09,0.91339
6061.94,0.90079
6038.8,0.88541
6015.65,0.87720
5992.51,0.89046
5969.37,0.89849
5946.22,0.88811
5923.08,0.86750
5899.93,0.84212
5876.79,0.80713
5853.64,0.76912
5830.5,0.72422
5807.35,0.75336
5784.21,0.79679
5761.06,0.81697
5737.92,0.81135
5714.78,0.81578
5691.63,0.81789
5668.49,0.83299
5645.34,0.84497
5622.2,0.85581
5599.05,0.85890
5575.91,0.86912
5552.76,0.87032
5529.62,0.87440
5506.47,0.87452
5483.33,0.87339
5460.19,0.86961
5437.04,0.87521
5413.9,0.87588
5390.75,0.88498
5367.61,0.88970
5344.46,0.88287
5321.32,0.89538
5298.17,0.89566
5275.03,0.89583
5251.88,0.89212
5228.74,0.89176
5205.6,0.89123
5182.45,0.89448
5159.31,0.89525
5136.16,0.89690
5113.02,0.89662
5089.87,0.89641
5066.73,0.89981
5043.58,0.90140
5020.44,0.90313
4997.29,0.90145
4974.15,0.90348
4951.01,0.90404
4927.86,0.90171
4904.72,0.90463
4881.57,0.90321
4858.43,0.90468
4835.28,0.90274
4812.14,0.90229
4788.99,0.90143
4765.85,0.90105
4742.7,0.89973
4719.56,0.88763
4696.42,0.87343
4673.27,0.87030
4650.13,0.87783
4626.98,0.86571
4603.84,0.88614
4580.69,0.88040
4557.55,0.88851
4534.4,0.88603
4511.26,0.87884
4488.11,0.85860
4464.97,0.84231
4441.83,0.79215
4418.68,0.69574
4395.54,0.61765
4372.39,0.54002
4349.25,0.41126
4326.1,0.37564
4302.96,0.47782
4279.81,0.47156
4256.67,0.48913
4233.52,0.48093
4210.38,0.46630
4187.24,0.50633
4164.09,0.50003
4140.95,0.56078
4117.8,0.58439
4094.66,0.54656
4071.51,0.53927
4048.37,0.61664
4025.22,0.62955
4002.08,0.65279
3978.93,0.68777
3955.79,0.70235
3932.65,0.70035
3909.5,0.70641
3886.36,0.71090
3863.21,0.70780
3840.07,0.70809
3816.92,0.72222
3793.78,0.75004
3770.63,0.75434
3747.49,0.73870
3724.34,0.76517
3701.2,0.74900
3678.06,0.66409
3654.91,0.68905
3631.77,0.68388
3608.62,0.64935
3585.48,0.62124
3562.33,0.57846
3539.19,0.55234
3516.04,0.53642
3492.9,0.49080
3469.75,0.42809
3446.61,0.36924
3423.47,0.29042
3400.32,0.38551
3377.18,0.46871
3354.03,0.50348
3330.89,0.48933
3307.74,0.35084
3284.6,0.45625
3261.45,0.55749
3238.31,0.56822
3215.16,0.55363
3192.02,0.54046
3168.87,0.54415
3145.73,0.53308
3122.59,0.49161
3099.44,0.41776
3076.3,0.33482
3053.15,0.27153
3030.01,0.24191
3006.86,0.08370
2983.72,0.00060
2960.57,0.00022
2937.43,0.00039
2914.28,0.00040
2891.14,0.00045
2868,0.00087
2844.85,0.00066
2821.71,0.06169
2798.56,0.21660
2775.42,0.34515
2752.27,0.36290
2729.13,0.33879
2705.98,0.44288
2682.84,0.46055
2659.69,0.48193
2636.55,0.50067
2613.41,0.48556
2590.26,0.48626
2567.12,0.49505
2543.97,0.51534
2520.83,0.54227
2497.68,0.58940
2474.54,0.60881
2451.39,0.61613
2428.25,0.58671
2405.1,0.54405
2381.96,0.50975
2358.82,0.51930
2335.67,0.59584
2312.53,0.63853
2289.38,0.62118
2266.24,0.61743
2243.09,0.62232
2219.95,0.63124
2196.8,0.66742
2173.66,0.69344
2150.51,0.68503
2127.37,0.67850
2104.23,0.67102
2081.08,0.65702
2057.94,0.65965
2034.79,0.67738
2011.65,0.69537
1988.5,0.66283
1965.36,0.60796
1942.21,0.51842
1919.07,0.62999
1895.92,0.64724
1872.78,0.65366
1849.64,0.59493
1826.49,0.41639
1803.35,0.42707
1780.2,0.30035
1757.06,0.08725
1733.91,0.00070
1710.77,0.00050
1687.62,0.04972
1664.48,0.18510
1641.33,0.19915
1618.19,0.30209
1595.05,0.35045
1571.9,0.16566
1548.76,0.26856
1525.61,0.25157
1502.47,0.07750
1479.32,0.03919
1456.18,0.00062
1433.03,0.00006
1409.89,-0.00000
1386.74,0.00051
1363.6,0.00158
1340.46,0.00033
1317.31,0.00032
1294.17,0.00056
1271.02,0.00022
1247.88,0.00027
1224.73,0.00038
1201.59,0.00130
1178.44,0.01194
1155.3,0.00618
1132.15,0.00013
1109.01,0.00036
1085.87,0.00045
1062.72,0.01420
1039.58,0.02353
1016.43,0.00090
993.287,0.00216
970.142,0.00041
946.998,0.00049
923.853,0.00354
900.709,0.02565
877.564,0.00453
854.42,0.04003
831.275,0.02931
808.131,0.16227
784.986,0.10265
761.842,0.10253
738.697,0.00453
715.552,0.02250
692.408,0.00131
669.263,0.01296
646.119,-0.00005
622.974,0.00082
599.83,0.00545