Folder: fsri_materials_database/01_Data/PEVA/FTIR/IS (part 14)

File: PEVA_0.18_IS_Trans_S_240819_R10.dpt
7496.91,0.95013
7473.76,0.93169
7450.62,0.92892
7427.47,0.93387
7404.33,0.92901
7381.18,0.93988
7358.04,0.92762
7334.89,0.91226
7311.75,0.93250
7288.61,0.92863
7265.46,0.92340
7242.32,0.92271
7219.17,0.92451
7196.03,0.91015
7172.88,0.91614
7149.74,0.91551
7126.59,0.91393
7103.45,0.91298
7080.3,0.91580
7057.16,0.90841
7034.02,0.92071
7010.87,0.92583
6987.73,0.92630
6964.58,0.91445
6941.44,0.91221
6918.29,0.91496
6895.15,0.92479
6872,0.92413
6848.86,0.92449
6825.71,0.92756
6802.57,0.92309
6779.43,0.93006
6756.28,0.92212
6733.14,0.93502
6709.99,0.93423
6686.85,0.93075
6663.7,0.93234
6640.56,0.93215
6617.41,0.93220
6594.27,0.93336
6571.12,0.93085
6547.98,0.92871
6524.84,0.93037
6501.69,0.93161
6478.55,0.92827
6455.4,0.93400
6432.26,0.93355
6409.11,0.93210
6385.97,0.93809
6362.82,0.93499
6339.68,0.93505
6316.53,0.93347
6293.39,0.92816
6270.24,0.93210
6247.1,0.93049
6223.96,0.93172
6200.81,0.93158
6177.67,0.93021
6154.52,0.93135
6131.38,0.92801
6108.23,0.92777
6085.09,0.92733
6061.94,0.92494
6038.8,0.91977
6015.65,0.91694
5992.51,0.92049
5969.37,0.91606
5946.22,0.91110
5923.08,0.90700
5899.93,0.90271
5876.79,0.88748
5853.64,0.85265
5830.5,0.81737
5807.35,0.78705
5784.21,0.73194
5761.06,0.77873
5737.92,0.84208
5714.78,0.85321
5691.63,0.83611
5668.49,0.81243
5645.34,0.84686
5622.2,0.86372
5599.05,0.87162
5575.91,0.87049
5552.76,0.86713
5529.62,0.87249
5506.47,0.86944
5483.33,0.87661
5460.19,0.87322
5437.04,0.87727
5413.9,0.87609
5390.75,0.88624
5367.61,0.89215
5344.46,0.88603
5321.32,0.89918
5298.17,0.89939
5275.03,0.89894
5251.88,0.89533
5228.74,0.89512
5205.6,0.89294
5182.45,0.89628
5159.31,0.89585
5136.16,0.90043
5113.02,0.90126
5089.87,0.90133
5066.73,0.90266
5043.58,0.90501
5020.44,0.90389
4997.29,0.90193
4974.15,0.90161
4951.01,0.90237
4927.86,0.90498
4904.72,0.90463
4881.57,0.90391
4858.43,0.90480
4835.28,0.90588
4812.14,0.90854
4788.99,0.90850
4765.85,0.90790
4742.7,0.91006
4719.56,0.90834
4696.42,0.90539
4673.27,0.89751
4650.13,0.90520
4626.98,0.90755
4603.84,0.90973
4580.69,0.90873
4557.55,0.90646
4534.4,0.90199
4511.26,0.89519
4488.11,0.88309
4464.97,0.86749
4441.83,0.83431
4418.68,0.80479
4395.54,0.75192
4372.39,0.66906
4349.25,0.51153
4326.1,0.27972
4302.96,0.59545
4279.81,0.57521
4256.67,0.38566
4233.52,0.53241
4210.38,0.50406
4187.24,0.45054
4164.09,0.46681
4140.95,0.48316
4117.8,0.49950
4094.66,0.50939
4071.51,0.58391
4048.37,0.61420
4025.22,0.63334
4002.08,0.68836
3978.93,0.68303
3955.79,0.70075
3932.65,0.69322
3909.5,0.69526
3886.36,0.69431
3863.21,0.70432
3840.07,0.70535
3816.92,0.71297
3793.78,0.75119
3770.63,0.75674
3747.49,0.74385
3724.34,0.75697
3701.2,0.75397
3678.06,0.72625
3654.91,0.70888
3631.77,0.71164
3608.62,0.66506
3585.48,0.77412
3562.33,0.79831
3539.19,0.81678
3516.04,0.82250
3492.9,0.81458
3469.75,0.72452
3446.61,0.69323
3423.47,0.79178
3400.32,0.80538
3377.18,0.79447
3354.03,0.80562
3330.89,0.81536
3307.74,0.81890
3284.6,0.81695
3261.45,0.81241
3238.31,0.80335
3215.16,0.78881
3192.02,0.76679
3168.87,0.74410
3145.73,0.72083
3122.59,0.67960
3099.44,0.58495
3076.3,0.46023
3053.15,0.36410
3030.01,0.23187
3006.86,0.14214
2983.72,0.03351
2960.57,0.00057
2937.43,0.00026
2914.28,0.00057
2891.14,0.00075
2868,0.00012
2844.85,0.00028
2821.71,0.00875
2798.56,0.08002
2775.42,0.21161
2752.27,0.27331
2729.13,0.29370
2705.98,0.34544
2682.84,0.31636
2659.69,0.32178
2636.55,0.34508
2613.41,0.43294
2590.26,0.51802
2567.12,0.60507
2543.97,0.65254
2520.83,0.67528
2497.68,0.70163
2474.54,0.68890
2451.39,0.74655
2428.25,0.75553
2405.1,0.74331
2381.96,0.73978
2358.82,0.66898
2335.67,0.63121
2312.53,0.66880
2289.38,0.72074
2266.24,0.74635
2243.09,0.76415
2219.95,0.79235
2196.8,0.77665
2173.66,0.74841
2150.51,0.73951
2127.37,0.78573
2104.23,0.79762
2081.08,0.79197
2057.94,0.76991
2034.79,0.72661
2011.65,0.72911
1988.5,0.79388
1965.36,0.79216
1942.21,0.77804
1919.07,0.75960
1895.92,0.70760
1872.78,0.70273
1849.64,0.69876
1826.49,0.63922
1803.35,0.55128
1780.2,0.38778
1757.06,0.05078
1733.91,0.00137
1710.77,0.15316
1687.62,0.34899
1664.48,0.52910
1641.33,0.55499
1618.19,0.64436
1595.05,0.65412
1571.9,0.62088
1548.76,0.58491
1525.61,0.52390
1502.47,0.43559
1479.32,0.11156
1456.18,0.00081
1433.03,0.02335
1409.89,0.26759
1386.74,0.07717
1363.6,0.00246
1340.46,0.22102
1317.31,0.24479
1294.17,0.12687
1271.02,0.01576
1247.88,0.00039
1224.73,0.00027
1201.59,0.09023
1178.44,0.20723
1155.3,0.17881
1132.15,0.12203
1109.01,0.15755
1085.87,0.12589
1062.72,0.07583
1039.58,0.02489
1016.43,0.00170
993.287,0.20693
970.142,0.18314
946.998,0.17326
923.853,0.38673
900.709,0.48413
877.564,0.50090
854.42,0.52975
831.275,0.60063
808.131,0.58800
784.986,0.62725
761.842,0.56509
738.697,0.30802
715.552,0.04961
692.408,0.70717
669.263,0.72256
646.119,0.57452
622.974,0.54520
599.83,0.52216

File: PEVA_0.18_IS_Trans_S_240819_R11.dpt
7496.91,0.93683
7473.76,0.92358
7450.62,0.92998
7427.47,0.93316
7404.33,0.94542
7381.18,0.93916
7358.04,0.95178
7334.89,0.92809
7311.75,0.93457
7288.61,0.92945
7265.46,0.93231
7242.32,0.92198
7219.17,0.92160
7196.03,0.92606
7172.88,0.93135
7149.74,0.91825
7126.59,0.94042
7103.45,0.92688
7080.3,0.92830
7057.16,0.91935
7034.02,0.92686
7010.87,0.92723
6987.73,0.93179
6964.58,0.93452
6941.44,0.92690
6918.29,0.93639
6895.15,0.93245
6872,0.93366
6848.86,0.93271
6825.71,0.93549
6802.57,0.94863
6779.43,0.93829
6756.28,0.94297
6733.14,0.93543
6709.99,0.94480
6686.85,0.93445
6663.7,0.94579
6640.56,0.94561
6617.41,0.94214
6594.27,0.95015
6571.12,0.93926
6547.98,0.94450
6524.84,0.94027
6501.69,0.94103
6478.55,0.94579
6455.4,0.94337
6432.26,0.94645
6409.11,0.94106
6385.97,0.94591
6362.82,0.94305
6339.68,0.94262
6316.53,0.94720
6293.39,0.94002
6270.24,0.94719
6247.1,0.94447
6223.96,0.94791
6200.81,0.93889
6177.67,0.94137
6154.52,0.94493
6131.38,0.93784
6108.23,0.93881
6085.09,0.93912
6061.94,0.93401
6038.8,0.93482
6015.65,0.92659
5992.51,0.92459
5969.37,0.92310
5946.22,0.91589
5923.08,0.91869
5899.93,0.91325
5876.79,0.89588
5853.64,0.86544
5830.5,0.82696
5807.35,0.79391
5784.21,0.74008
5761.06,0.78617
5737.92,0.85126
5714.78,0.86419
5691.63,0.84677
5668.49,0.81804
5645.34,0.85690
5622.2,0.87214
5599.05,0.88367
5575.91,0.88280
5552.76,0.87885
5529.62,0.88060
5506.47,0.88125
5483.33,0.88657
5460.19,0.88269
5437.04,0.88605
5413.9,0.88371
5390.75,0.89747
5367.61,0.90424
5344.46,0.89301
5321.32,0.90837
5298.17,0.90917
5275.03,0.91040
5251.88,0.90329
5228.74,0.90362
5205.6,0.89941
5182.45,0.90819
5159.31,0.90908
5136.16,0.91185
5113.02,0.91206
5089.87,0.91297
5066.73,0.91521
5043.58,0.91357
5020.44,0.91432
4997.29,0.91295
4974.15,0.91186
4951.01,0.91358
4927.86,0.91747
4904.72,0.91700
4881.57,0.91506
4858.43,0.91650
4835.28,0.91689
4812.14,0.91957
4788.99,0.92010
4765.85,0.91810
4742.7,0.91863
4719.56,0.91822
4696.42,0.91400
4673.27,0.90657
4650.13,0.91712
4626.98,0.92086
4603.84,0.91959
4580.69,0.91883
4557.55,0.91745
4534.4,0.91263
4511.26,0.90748
4488.11,0.89598
4464.97,0.87901
4441.83,0.84410
4418.68,0.81498
4395.54,0.75979
4372.39,0.67726
4349.25,0.51726
4326.1,0.28371
4302.96,0.60274
4279.81,0.58189
4256.67,0.39096
4233.52,0.53857
4210.38,0.50977
4187.24,0.45637
4164.09,0.47136
4140.95,0.48830
4117.8,0.50568
4094.66,0.51624
4071.51,0.59007
4048.37,0.62169
4025.22,0.64071
4002.08,0.69726
3978.93,0.69151
3955.79,0.71004
3932.65,0.70055
3909.5,0.70468
3886.36,0.70349
3863.21,0.71289
3840.07,0.71341
3816.92,0.72143
3793.78,0.76000
3770.63,0.76648
3747.49,0.75261
3724.34,0.76468
3701.2,0.76177
3678.06,0.73606
3654.91,0.71722
3631.77,0.72018
3608.62,0.67295
3585.48,0.78328
3562.33,0.80800
3539.19,0.82638
3516.04,0.83142
3492.9,0.82396
3469.75,0.73275
3446.61,0.70184
3423.47,0.80308
3400.32,0.81468
3377.18,0.80355
3354.03,0.81397
3330.89,0.82642
3307.74,0.82955
3284.6,0.82704
3261.45,0.82301
3238.31,0.81446
3215.16,0.79888
3192.02,0.77528
3168.87,0.75317
3145.73,0.72852
3122.59,0.68771
3099.44,0.59280
3076.3,0.46575
3053.15,0.36934
3030.01,0.23394
3006.86,0.14320
2983.72,0.03367
2960.57,0.00038
2937.43,0.00021
2914.28,0.00036
2891.14,0.00051
2868,0.00026
2844.85,0.00024
2821.71,0.00826
2798.56,0.08114
2775.42,0.21392
2752.27,0.27651
2729.13,0.29699
2705.98,0.34930
2682.84,0.31969
2659.69,0.32588
2636.55,0.34952
2613.41,0.43851
2590.26,0.52407
2567.12,0.61173
2543.97,0.66110
2520.83,0.68472
2497.68,0.71115
2474.54,0.69722
2451.39,0.75474
2428.25,0.76438
2405.1,0.75252
2381.96,0.74779
2358.82,0.66210
2335.67,0.62886
2312.53,0.67173
2289.38,0.72880
2266.24,0.75480
2243.09,0.77401
2219.95,0.80295
2196.8,0.78733
2173.66,0.75807
2150.51,0.74846
2127.37,0.79486
2104.23,0.80769
2081.08,0.80271
2057.94,0.78183
2034.79,0.73754
2011.65,0.73914
1988.5,0.80459
1965.36,0.80176
1942.21,0.78792
1919.07,0.77040
1895.92,0.71780
1872.78,0.71295
1849.64,0.70822
1826.49,0.64746
1803.35,0.55890
1780.2,0.39312
1757.06,0.05145
1733.91,0.00091
1710.77,0.15451
1687.62,0.35343
1664.48,0.53661
1641.33,0.56224
1618.19,0.65395
1595.05,0.66355
1571.9,0.62989
1548.76,0.59243
1525.61,0.52966
1502.47,0.44176
1479.32,0.11235
1456.18,0.00061
1433.03,0.02383
1409.89,0.27117
1386.74,0.07790
1363.6,0.00250
1340.46,0.22326
1317.31,0.24784
1294.17,0.12794
1271.02,0.01585
1247.88,0.00040
1224.73,0.00043
1201.59,0.09112
1178.44,0.20949
1155.3,0.18099
1132.15,0.12356
1109.01,0.15886
1085.87,0.12739
1062.72,0.07694
1039.58,0.02509
1016.43,0.00212
993.287,0.21023
970.142,0.18578
946.998,0.17480
923.853,0.39074
900.709,0.49083
877.564,0.50843
854.42,0.53820
831.275,0.61001
808.131,0.59500
784.986,0.63363
761.842,0.57275
738.697,0.31380
715.552,0.05089
692.408,0.71834
669.263,0.73221
646.119,0.58407
622.974,0.55296
599.83,0.52670

File: PEVA_0.18_IS_Trans_T_240819_R1.dpt
7496.91,0.00800
7473.76,0.00994
7450.62,0.02289
7427.47,-0.00141
7404.33,0.02438
7381.18,0.01498
7358.04,0.02539
7334.89,0.00862
7311.75,0.00791
7288.61,0.01789
7265.46,0.01481
7242.32,0.01153
7219.17,0.01181
7196.03,0.00671
7172.88,0.00313
7149.74,0.01143
7126.59,0.01972
7103.45,0.02465
7080.3,0.01473
7057.16,0.00791
7034.02,0.01669
7010.87,0.00734
6987.73,0.00619
6964.58,0.00346
6941.44,0.00533
6918.29,0.01609
6895.15,0.00932
6872,0.00878
6848.86,0.00764
6825.71,0.00636
6802.57,0.01802
6779.43,0.02109
6756.28,0.01786
6733.14,0.00904
6709.99,0.02217
6686.85,0.01825
6663.7,0.01215
6640.56,0.00066
6617.41,0.00458
6594.27,0.00797
6571.12,0.01468
6547.98,0.00999
6524.84,0.01472
6501.69,0.00947
6478.55,0.01198
6455.4,0.00481
6432.26,0.00936
6409.11,0.00465
6385.97,0.01247
6362.82,0.00836
6339.68,0.00527
6316.53,0.01183
6293.39,0.01031
6270.24,-0.00092
6247.1,0.00948
6223.96,0.01036
6200.81,0.00464
6177.67,0.00692
6154.52,0.00780
6131.38,0.00696
6108.23,0.00539
6085.09,0.00193
6061.94,0.00680
6038.8,0.00526
6015.65,0.00062
5992.51,0.00290
5969.37,0.00694
5946.22,0.00861
5923.08,0.00731
5899.93,0.00368
5876.79,0.00404
5853.64,0.00376
5830.5,0.00548
5807.35,0.00333
5784.21,0.00573
5761.06,0.00781
5737.92,0.00602
5714.78,0.00576
5691.63,0.00634
5668.49,0.00196
5645.34,0.00598
5622.2,0.00521
5599.05,0.00453
5575.91,0.00425
5552.76,0.00423
5529.62,0.00431
5506.47,0.00148
5483.33,0.00338
5460.19,0.00310
5437.04,0.00223
5413.9,0.00110
5390.75,0.00196
5367.61,-0.00064
5344.46,0.00026
5321.32,0.00412
5298.17,0.00116
5275.03,0.00252
5251.88,0.00145
5228.74,0.00274
5205.6,0.00296
5182.45,0.00312
5159.31,0.00206
5136.16,0.00170
5113.02,0.00192
5089.87,-0.00027
5066.73,0.00288
5043.58,0.00261
5020.44,0.00411
4997.29,0.00376
4974.15,0.00241
4951.01,0.00006
4927.86,0.00250
4904.72,0.00135
4881.57,0.00006
4858.43,0.00073
4835.28,0.00133
4812.14,0.00288
4788.99,0.00278
4765.85,0.00172
4742.7,0.00204
4719.56,0.00002
4696.42,0.00233
4673.27,0.00118
4650.13,0.00143
4626.98,0.00149
4603.84,-0.00053
4580.69,0.00107
4557.55,0.00174
4534.4,0.00296
4511.26,0.00138
4488.11,0.00150
4464.97,0.00101
4441.83,0.00157
4418.68,0.00105
4395.54,0.00024
4372.39,0.00206
4349.25,0.00047
4326.1,0.00214
4302.96,0.00054
4279.81,0.00157
4256.67,0.00150
4233.52,0.00194
4210.38,0.00249
4187.24,0.00098
4164.09,0.00058
4140.95,0.00021
4117.8,0.00141
4094.66,0.00057
4071.51,0.00199
4048.37,0.00102
4025.22,0.00153
4002.08,0.00182
3978.93,0.00065
3955.79,0.00223
3932.65,0.00217
3909.5,0.00084
3886.36,0.00184
3863.21,0.00013
3840.07,0.00303
3816.92,0.00157
3793.78,0.00014
3770.63,0.00246
3747.49,0.00120
3724.34,0.00166
3701.2,0.00113
3678.06,0.00207
3654.91,0.00110
3631.77,0.00180
3608.62,0.00060
3585.48,0.00063
3562.33,0.00070
3539.19,0.00093
3516.04,0.00096
3492.9,0.00100
3469.75,0.00156
3446.61,0.00193
3423.47,0.00118
3400.32,0.00073
3377.18,0.00306
3354.03,0.00114
3330.89,0.00162
3307.74,0.00066
3284.6,0.00129
3261.45,-0.00017
3238.31,0.00295
3215.16,0.00035
3192.02,0.00170
3168.87,0.00153
3145.73,0.00151
3122.59,0.00100
3099.44,0.00090
3076.3,0.00097
3053.15,0.00033
3030.01,0.00106
3006.86,0.00035
2983.72,0.00111
2960.57,0.00066
2937.43,0.00075
2914.28,0.00098
2891.14,0.00040
2868,0.00091
2844.85,0.00079
2821.71,0.00121
2798.56,0.00107
2775.42,0.00050
2752.27,0.00056
2729.13,0.00116
2705.98,0.00033
2682.84,0.00048
2659.69,0.00061
2636.55,0.00040
2613.41,0.00071
2590.26,0.00036
2567.12,0.00049
2543.97,0.00019
2520.83,0.00088
2497.68,0.00017
2474.54,0.00041
2451.39,0.00080
2428.25,0.00064
2405.1,0.00012
2381.96,0.00079
2358.82,0.00108
2335.67,0.00130
2312.53,0.00091
2289.38,0.00060
2266.24,0.00076
2243.09,0.00028
2219.95,0.00035
2196.8,0.00050
2173.66,0.00051
2150.51,0.00023
2127.37,0.00082
2104.23,0.00123
2081.08,0.00033
2057.94,0.00026
2034.79,0.00046
2011.65,0.00028
1988.5,0.00051
1965.36,0.00042
1942.21,0.00021
1919.07,0.00059
1895.92,0.00036
1872.78,0.00046
1849.64,0.00044
1826.49,0.00081
1803.35,0.00025
1780.2,0.00069
1757.06,0.00038
1733.91,0.00061
1710.77,0.00053
1687.62,0.00115
1664.48,0.00021
1641.33,0.00037
1618.19,0.00089
1595.05,0.00060
1571.9,0.00146
1548.76,0.00043
1525.61,0.00090
1502.47,0.00071
1479.32,0.00048
1456.18,0.00126
1433.03,0.00064
1409.89,0.00061
1386.74,0.00034
1363.6,0.00076
1340.46,-0.00013
1317.31,0.00068
1294.17,0.00033
1271.02,0.00040
1247.88,0.00042
1224.73,0.00034
1201.59,0.00045
1178.44,0.00046
1155.3,0.00083
1132.15,0.00024
1109.01,0.00021
1085.87,0.00119
1062.72,0.00091
1039.58,0.00148
1016.43,0.00127
993.287,0.00078
970.142,0.00159
946.998,0.00076
923.853,0.00130
900.709,0.00121
877.564,0.00130
854.42,0.00018
831.275,0.00085
808.131,0.00185
784.986,0.00204
761.842,0.00135
738.697,0.00102
715.552,0.00140
692.408,0.00109
669.263,0.00096
646.119,0.00387
622.974,0.00333
599.83,0.00146

File: PEVA_0.18_IS_Trans_T_240819_R3.dpt
7496.91,0.03592
7473.76,0.01645
7450.62,0.01025
7427.47,0.00377
7404.33,0.01187
7381.18,0.02750
7358.04,0.00268
7334.89,0.00971
7311.75,0.01083
7288.61,0.01721
7265.46,0.02721
7242.32,0.00899
7219.17,0.02499
7196.03,-0.00111
7172.88,0.03661
7149.74,0.01405
7126.59,0.01670
7103.45,0.00599
7080.3,0.01364
7057.16,0.01030
7034.02,0.00577
7010.87,0.01002
6987.73,0.02312
6964.58,0.00733
6941.44,0.01635
6918.29,0.01509
6895.15,0.00378
6872,0.01943
6848.86,0.02257
6825.71,0.01026
6802.57,0.01441
6779.43,0.00447
6756.28,0.01240
6733.14,0.00285
6709.99,0.00794
6686.85,0.00379
6663.7,0.01850
6640.56,0.00633
6617.41,0.01671
6594.27,0.01047
6571.12,0.00747
6547.98,0.00285
6524.84,0.00232
6501.69,-0.00183
6478.55,0.00413
6455.4,0.01465
6432.26,0.01016
6409.11,0.01364
6385.97,0.00275
6362.82,0.01067
6339.68,0.00675
6316.53,0.00532
6293.39,0.00649
6270.24,0.00818
6247.1,0.00560
6223.96,0.01671
6200.81,0.00502
6177.67,0.00811
6154.52,0.00760
6131.38,0.00932
6108.23,-0.00052
6085.09,0.00824
6061.94,0.00351
6038.8,0.00394
6015.65,0.00380
5992.51,0.00415
5969.37,0.00522
5946.22,0.00571
5923.08,0.00728
5899.93,0.00549
5876.79,0.00319
5853.64,0.00308
5830.5,0.00672
5807.35,0.00224
5784.21,0.00469
5761.06,0.00262
5737.92,0.00586
5714.78,0.00285
5691.63,0.00207
5668.49,0.00411
5645.34,0.00304
5622.2,0.00723
5599.05,0.00160
5575.91,0.00248
5552.76,0.00212
5529.62,0.00454
5506.47,0.00440
5483.33,0.00511
5460.19,0.00343
5437.04,0.00544
5413.9,0.00552
5390.75,0.00179
5367.61,0.00097
5344.46,0.00129
5321.32,0.00296
5298.17,0.00445
5275.03,0.00357
5251.88,0.00419
5228.74,0.00389
5205.6,-0.00067
5182.45,0.00136
5159.31,0.00287
5136.16,0.00403
5113.02,0.00427
5089.87,0.00204
5066.73,0.00225
5043.58,0.00185
5020.44,0.00210
4997.29,0.00318
4974.15,0.00056
4951.01,0.00207
4927.86,0.00389
4904.72,0.00164
4881.57,0.00289
4858.43,0.00370
4835.28,0.00133
4812.14,0.00066
4788.99,0.00199
4765.85,0.00410
4742.7,0.00137
4719.56,0.00095
4696.42,0.00180
4673.27,0.00020
4650.13,0.00156
4626.98,0.00061
4603.84,0.00212
4580.69,0.00142
4557.55,0.00195
4534.4,0.00213
4511.26,0.00077
4488.11,0.00033
4464.97,0.00139
4441.83,0.00041
4418.68,0.00105
4395.54,0.00103
4372.39,0.00073
4349.25,0.00091
4326.1,0.00041
4302.96,0.00229
4279.81,0.00092
4256.67,-0.00015
4233.52,0.00144
4210.38,0.00103
4187.24,0.00184
4164.09,0.00117
4140.95,0.00163
4117.8,0.00082
4094.66,0.00138
4071.51,0.00095
4048.37,0.00086
4025.22,0.00005
4002.08,0.00074
3978.93,0.00157
3955.79,0.00065
3932.65,0.00023
3909.5,0.00104
3886.36,0.00064
3863.21,0.00112
3840.07,0.00150
3816.92,0.00026
3793.78,0.00070
3770.63,0.00073
3747.49,0.00026
3724.34,0.00140
3701.2,0.00034
3678.06,0.00122
3654.91,0.00174
3631.77,0.00279
3608.62,0.00117
3585.48,0.00205
3562.33,0.00187
3539.19,0.00116
3516.04,0.00216
3492.9,0.00149
3469.75,0.00095
3446.61,0.00141
3423.47,0.00147
3400.32,0.00159
3377.18,0.00110
3354.03,0.00064
3330.89,0.00158
3307.74,0.00071
3284.6,0.00080
3261.45,0.00092
3238.31,0.00093
3215.16,0.00041
3192.02,-0.00017
3168.87,0.00161
3145.73,0.00163
3122.59,0.00101
3099.44,0.00038
3076.3,0.00099
3053.15,0.00011
3030.01,0.00042
3006.86,0.00107
2983.72,0.00079
2960.57,0.00139
2937.43,0.00122
2914.28,0.00075
2891.14,0.00094
2868,0.00054
2844.85,0.00029
2821.71,0.00078
2798.56,0.00054
2775.42,0.00084
2752.27,0.00086
2729.13,0.00082
2705.98,0.00050
2682.84,0.00097
2659.69,0.00023
2636.55,0.00048
2613.41,0.00037
2590.26,0.00039
2567.12,0.00024
2543.97,0.00057
2520.83,0.00066
2497.68,0.00108
2474.54,0.00138
2451.39,0.00080
2428.25,0.00004
2405.1,0.00032
2381.96,0.00020
2358.82,0.00037
2335.67,0.00034
2312.53,0.00096
2289.38,0.00043
2266.24,0.00110
2243.09,0.00003
2219.95,0.00032
2196.8,0.00079
2173.66,0.00012
2150.51,0.00093
2127.37,0.00062
2104.23,0.00036
2081.08,0.00030
2057.94,0.00092
2034.79,0.00115
2011.65,0.00028
1988.5,0.00033
1965.36,0.00080
1942.21,0.00047
1919.07,0.00076
1895.92,0.00031
1872.78,0.00075
1849.64,0.00068
1826.49,0.00072
1803.35,0.00065
1780.2,0.00018
1757.06,0.00058
1733.91,0.00104
1710.77,0.00074
1687.62,0.00019
1664.48,0.00090
1641.33,0.00057
1618.19,0.00114
1595.05,0.00008
1571.9,0.00027
1548.76,0.00081
1525.61,0.00036
1502.47,0.00105
1479.32,0.00088
1456.18,0.00058
1433.03,0.00062
1409.89,0.00055
1386.74,0.00062
1363.6,0.00054
1340.46,0.00029
1317.31,0.00060
1294.17,0.00092
1271.02,0.00054
1247.88,0.00077
1224.73,0.00038
1201.59,0.00028
1178.44,0.00119
1155.3,0.00203
1132.15,0.00155
1109.01,0.00136
1085.87,0.00137
1062.72,0.00091
1039.58,0.00010
1016.43,0.00133
993.287,0.00018
970.142,0.00169
946.998,0.00105
923.853,0.00175
900.709,0.00029
877.564,0.00065
854.42,0.00206
831.275,0.00117
808.131,0.00212
784.986,0.00177
761.842,0.00119
738.697,0.00136
715.552,0.00056
692.408,0.00128
669.263,0.00214
646.119,0.00299
622.974,0.00595
599.83,0.00449

File: PEVA_0.18_IS_Trans_T_240819_R4.dpt
7496.91,0.02922
7473.76,0.03129
7450.62,0.04158
7427.47,0.01966
7404.33,0.03918
7381.18,0.01658
7358.04,0.01736
7334.89,0.02737
7311.75,0.02068
7288.61,0.02150
7265.46,0.01627
7242.32,0.03123
7219.17,0.03113
7196.03,0.00430
7172.88,0.02573
7149.74,0.01719
7126.59,0.01347
7103.45,0.01993
7080.3,0.02863
7057.16,0.01591
7034.02,0.00469
7010.87,0.01120
6987.73,0.02134
6964.58,0.02718
6941.44,0.01784
6918.29,0.01817
6895.15,0.01550
6872,0.00113
6848.86,0.01937
6825.71,0.01432
6802.57,0.00788
6779.43,0.01403
6756.28,0.00529
6733.14,0.00890
6709.99,0.01028
6686.85,0.01930
6663.7,0.01718
6640.56,0.01332
6617.41,0.00379
6594.27,0.00344
6571.12,0.01095
6547.98,0.01572
6524.84,0.01152
6501.69,0.01482
6478.55,0.01394
6455.4,0.01326
6432.26,0.01033
6409.11,0.00901
6385.97,0.00511
6362.82,0.00537
6339.68,0.00673
6316.53,0.00692
6293.39,0.00551
6270.24,0.00272
6247.1,0.00649
6223.96,0.01113
6200.81,0.01209
6177.67,0.00339
6154.52,0.00508
6131.38,0.00517
6108.23,0.00863
6085.09,0.00777
6061.94,0.00580
6038.8,0.00763
6015.65,0.00519
5992.51,0.00283
5969.37,0.00369
5946.22,0.00791
5923.08,0.00472
5899.93,0.00582
5876.79,0.00141
5853.64,0.00499
5830.5,0.00577
5807.35,0.00323
5784.21,0.00733
5761.06,0.00985
5737.92,0.00328
5714.78,0.00572
5691.63,0.00956
5668.49,0.00242
5645.34,0.00569
5622.2,0.00162
5599.05,-0.00101
5575.91,0.00273
5552.76,0.00441
5529.62,0.00362
5506.47,0.00735
5483.33,0.00507
5460.19,0.00379
5437.04,0.00689
5413.9,0.00408
5390.75,0.00156
5367.61,0.00508
5344.46,0.00474
5321.32,0.00135
5298.17,0.00312
5275.03,0.00590
5251.88,0.00276
5228.74,0.00359
5205.6,0.00487
5182.45,0.00410
5159.31,0.00417
5136.16,0.00391
5113.02,0.00331
5089.87,0.00233
5066.73,0.00263
5043.58,0.00240
5020.44,0.00242
4997.29,0.00350
4974.15,0.00173
4951.01,0.00139
4927.86,0.00510
4904.72,0.00239
4881.57,0.00190
4858.43,0.00112
4835.28,0.00468
4812.14,0.00238
4788.99,0.00329
4765.85,0.00265
4742.7,0.00167
4719.56,0.00210
4696.42,0.00128
4673.27,0.00215
4650.13,0.00248
4626.98,0.00361
4603.84,0.00233
4580.69,0.00066
4557.55,0.00354
4534.4,0.00126
4511.26,0.00246
4488.11,0.00327
4464.97,0.00060
4441.83,0.00192
4418.68,0.00353
4395.54,0.00191
4372.39,0.00235
4349.25,0.00135
4326.1,0.00180
4302.96,0.00143
4279.81,0.00228
4256.67,0.00078
4233.52,0.00158
4210.38,0.00164
4187.24,0.00225
4164.09,0.00208
4140.95,0.00243
4117.8,0.00112
4094.66,0.00188
4071.51,0.00126
4048.37,0.00161
4025.22,0.00138
4002.08,0.00199
3978.93,0.00165
3955.79,0.00212
3932.65,0.00108
3909.5,0.00092
3886.36,0.00090
3863.21,0.00077
3840.07,0.00210
3816.92,0.00249
3793.78,0.00115
3770.63,0.00073
3747.49,0.00092
3724.34,0.00092
3701.2,0.00237
3678.06,0.00295
3654.91,0.00247
3631.77,0.00171
3608.62,0.00263
3585.48,0.00267
3562.33,0.00126
3539.19,0.00047
3516.04,0.00023
3492.9,0.00017
3469.75,0.00019
3446.61,0.00127
3423.47,0.00264
3400.32,0.00173
3377.18,0.00159
3354.03,0.00059
3330.89,0.00228
3307.74,0.00208
3284.6,0.00043
3261.45,0.00100
3238.31,0.00109
3215.16,0.00335
3192.02,-0.00001
3168.87,0.00076
3145.73,0.00216
3122.59,0.00164
3099.44,0.00108
3076.3,0.00147
3053.15,0.00050
3030.01,0.00095
3006.86,0.00097
2983.72,0.00129
2960.57,0.00122
2937.43,0.00106
2914.28,0.00109
2891.14,0.00056
2868,0.00084
2844.85,0.00137
2821.71,0.00088
2798.56,0.00176
2775.42,0.00058
2752.27,0.00124
2729.13,0.00058
2705.98,0.00055
2682.84,0.00106
2659.69,0.00060
2636.55,0.00064
2613.41,0.00038
2590.26,0.00108
2567.12,0.00142
2543.97,0.00004
2520.83,0.00126
2497.68,0.00059
2474.54,0.00135
2451.39,0.00093
2428.25,-0.00007
2405.1,0.00132
2381.96,0.00096
2358.82,0.00196
2335.67,0.00104
2312.53,0.00068
2289.38,0.00034
2266.24,0.00102
2243.09,0.00051
2219.95,0.00054
2196.8,0.00071
2173.66,0.00077
2150.51,0.00097
2127.37,0.00048
2104.23,0.00030
2081.08,0.00058
2057.94,0.00050
2034.79,0.00022
2011.65,0.00114
1988.5,0.00077
1965.36,0.00059
1942.21,0.00019
1919.07,-0.00011
1895.92,0.00028
1872.78,0.00033
1849.64,0.00051
1826.49,0.00073
1803.35,0.00078
1780.2,0.00070
1757.06,0.00038
1733.91,0.00036
1710.77,0.00085
1687.62,0.00059
1664.48,0.00061
1641.33,0.00100
1618.19,0.00061
1595.05,0.00054
1571.9,0.00120
1548.76,0.00091
1525.61,0.00118
1502.47,0.00068
1479.32,0.00054
1456.18,0.00150
1433.03,0.00109
1409.89,0.00074
1386.74,0.00093
1363.6,0.00118
1340.46,0.00021
1317.31,0.00036
1294.17,0.00126
1271.02,0.00057
1247.88,0.00054
1224.73,0.00082
1201.59,0.00016
1178.44,0.00039
1155.3,0.00055
1132.15,0.00092
1109.01,0.00020
1085.87,0.00064
1062.72,0.00106
1039.58,0.00132
1016.43,0.00122
993.287,0.00093
970.142,0.00173
946.998,0.00093
923.853,0.00121
900.709,0.00006
877.564,0.00106
854.42,0.00150
831.275,0.00027
808.131,0.00159
784.986,0.00071
761.842,0.00225
738.697,0.00086
715.552,0.00137
692.408,0.00371
669.263,0.00366
646.119,0.00166
622.974,0.00384
599.83,0.00276