Folder: fsri_materials_database/01_Data/PEVA/FTIR/IS (part 12)

File: PEVA_0.18_IS_T_240809_R14.dpt
7497.33,0.02887
7474.19,0.04365
7451.04,0.03444
7427.9,0.04177
7404.75,0.04446
7381.6,0.02672
7358.46,0.03623
7335.31,0.02830
7312.17,0.03230
7289.02,0.03014
7265.87,0.03205
7242.73,0.03414
7219.58,0.03120
7196.44,0.02801
7173.29,0.03448
7150.15,0.03098
7127,0.02782
7103.85,0.02987
7080.71,0.03259
7057.56,0.03160
7034.42,0.02448
7011.27,0.03011
6988.12,0.03028
6964.98,0.03412
6941.83,0.03374
6918.69,0.03301
6895.54,0.03412
6872.39,0.04517
6849.25,0.02968
6826.1,0.03328
6802.96,0.02891
6779.81,0.02538
6756.67,0.03595
6733.52,0.03270
6710.37,0.03062
6687.23,0.03108
6664.08,0.03188
6640.94,0.03069
6617.79,0.03447
6594.64,0.03710
6571.5,0.02484
6548.35,0.03059
6525.21,0.03300
6502.06,0.03209
6478.92,0.03160
6455.77,0.03477
6432.62,0.02922
6409.48,0.02999
6386.33,0.03393
6363.19,0.02976
6340.04,0.03031
6316.89,0.02846
6293.75,0.03223
6270.6,0.02941
6247.46,0.02769
6224.31,0.02949
6201.16,0.03556
6178.02,0.02768
6154.87,0.03208
6131.73,0.03057
6108.58,0.03139
6085.44,0.03036
6062.29,0.03164
6039.14,0.03015
6016,0.03375
5992.85,0.02785
5969.71,0.03247
5946.56,0.03032
5923.41,0.02955
5900.27,0.02744
5877.12,0.02984
5853.98,0.02990
5830.83,0.02773
5807.68,0.03065
5784.54,0.03085
5761.39,0.03019
5738.25,0.02829
5715.1,0.02938
5691.96,0.02990
5668.81,0.02875
5645.66,0.02987
5622.52,0.03018
5599.37,0.03114
5576.23,0.02974
5553.08,0.03089
5529.93,0.02908
5506.79,0.03142
5483.64,0.03151
5460.5,0.03017
5437.35,0.03220
5414.21,0.03036
5391.06,0.02995
5367.91,0.03077
5344.77,0.03143
5321.62,0.02905
5298.48,0.02999
5275.33,0.02890
5252.18,0.03033
5229.04,0.03097
5205.89,0.02943
5182.75,0.02980
5159.6,0.02857
5136.45,0.03124
5113.31,0.02968
5090.16,0.03064
5067.02,0.02995
5043.87,0.02925
5020.73,0.03021
4997.58,0.02957
4974.43,0.02974
4951.29,0.02940
4928.14,0.03139
4905,0.03180
4881.85,0.03092
4858.7,0.02980
4835.56,0.03001
4812.41,0.03096
4789.27,0.02938
4766.12,0.03085
4742.97,0.03148
4719.83,0.02967
4696.68,0.02931
4673.54,0.03042
4650.39,0.03015
4627.25,0.03025
4604.1,0.03061
4580.95,0.02925
4557.81,0.03066
4534.66,0.02997
4511.52,0.03056
4488.37,0.02990
4465.22,0.03016
4442.08,0.03024
4418.93,0.02980
4395.79,0.02972
4372.64,0.02997
4349.49,0.03008
4326.35,0.02949
4303.2,0.03030
4280.06,0.02955
4256.91,0.03051
4233.77,0.02949
4210.62,0.02889
4187.47,0.03019
4164.33,0.03049
4141.18,0.02985
4118.04,0.02957
4094.89,0.02945
4071.74,0.02947
4048.6,0.02935
4025.45,0.02960
4002.31,0.02897
3979.16,0.02986
3956.02,0.02942
3932.87,0.02938
3909.72,0.02907
3886.58,0.02951
3863.43,0.02968
3840.29,0.02991
3817.14,0.03078
3793.99,0.02914
3770.85,0.02979
3747.7,0.02969
3724.56,0.02973
3701.41,0.02943
3678.26,0.02937
3655.12,0.02868
3631.97,0.02818
3608.83,0.02744
3585.68,0.02686
3562.54,0.02725
3539.39,0.02614
3516.24,0.02668
3493.1,0.02588
3469.95,0.02630
3446.81,0.02625
3423.66,0.02693
3400.51,0.02618
3377.37,0.02598
3354.22,0.02586
3331.08,0.02574
3307.93,0.02617
3284.78,0.02622
3261.64,0.02547
3238.49,0.02679
3215.35,0.02610
3192.2,0.02670
3169.06,0.02649
3145.91,0.02732
3122.76,0.02668
3099.62,0.02681
3076.47,0.02613
3053.33,0.02683
3030.18,0.02603
3007.03,0.02602
2983.89,0.02595
2960.74,0.02531
2937.6,0.02510
2914.45,0.02618
2891.31,0.02616
2868.16,0.02622
2845.01,0.02667
2821.87,0.02688
2798.72,0.02665
2775.58,0.02702
2752.43,0.02662
2729.28,0.02623
2706.14,0.02710
2682.99,0.02702
2659.85,0.02670
2636.7,0.02671
2613.55,0.02693
2590.41,0.02642
2567.26,0.02714
2544.12,0.02679
2520.97,0.02664
2497.83,0.02689
2474.68,0.02680
2451.53,0.02667
2428.39,0.02647
2405.24,0.02658
2382.1,0.02629
2358.95,0.02679
2335.8,0.02652
2312.66,0.02633
2289.51,0.02651
2266.37,0.02580
2243.22,0.02615
2220.07,0.02581
2196.93,0.02591
2173.78,0.02569
2150.64,0.02585
2127.49,0.02613
2104.35,0.02558
2081.2,0.02540
2058.05,0.02523
2034.91,0.02524
2011.76,0.02550
1988.62,0.02539
1965.47,0.02557
1942.32,0.02502
1919.18,0.02506
1896.03,0.02482
1872.89,0.02456
1849.74,0.02454
1826.6,0.02433
1803.45,0.02352
1780.3,0.02286
1757.16,0.02170
1734.01,0.02333
1710.87,0.02408
1687.72,0.02292
1664.57,0.02163
1641.43,0.02209
1618.28,0.02269
1595.14,0.02223
1571.99,0.02185
1548.84,0.02176
1525.7,0.02242
1502.55,0.02198
1479.41,0.02177
1456.26,0.02119
1433.12,0.02124
1409.97,0.02103
1386.82,0.02058
1363.68,0.02096
1340.53,0.02072
1317.39,0.01962
1294.24,0.01997
1271.09,0.02162
1247.95,0.02255
1224.8,0.02187
1201.66,0.02081
1178.51,0.02116
1155.36,0.02001
1132.22,0.02096
1109.07,0.02245
1085.93,0.02217
1062.78,0.02388
1039.64,0.02283
1016.49,0.02248
993.344,0.02425
970.198,0.02398
947.052,0.02335
923.906,0.02223
900.76,0.02191
877.614,0.02229
854.468,0.02182
831.323,0.02145
808.177,0.02198
785.031,0.02065
761.885,0.01995
738.739,0.02014
715.593,0.01903
692.447,0.01931
669.301,0.02035
646.156,0.01653
623.01,0.01904
599.864,0.02012

File: PEVA_0.18_IS_Trans_S_240819_R1.dpt
7496.91,0.93519
7473.76,0.93672
7450.62,0.93126
7427.47,0.92423
7404.33,0.93141
7381.18,0.91894
7358.04,0.92868
7334.89,0.93658
7311.75,0.92752
7288.61,0.91371
7265.46,0.92139
7242.32,0.91705
7219.17,0.91940
7196.03,0.91765
7172.88,0.91188
7149.74,0.91591
7126.59,0.93124
7103.45,0.91526
7080.3,0.91965
7057.16,0.91786
7034.02,0.92267
7010.87,0.93444
6987.73,0.92243
6964.58,0.92588
6941.44,0.92988
6918.29,0.93529
6895.15,0.92431
6872,0.92886
6848.86,0.93509
6825.71,0.92546
6802.57,0.93486
6779.43,0.93773
6756.28,0.93391
6733.14,0.93942
6709.99,0.93611
6686.85,0.94581
6663.7,0.93973
6640.56,0.93751
6617.41,0.94145
6594.27,0.93827
6571.12,0.93844
6547.98,0.93880
6524.84,0.93588
6501.69,0.94741
6478.55,0.93591
6455.4,0.93969
6432.26,0.94336
6409.11,0.93460
6385.97,0.94183
6362.82,0.94414
6339.68,0.94301
6316.53,0.94025
6293.39,0.94495
6270.24,0.94093
6247.1,0.93946
6223.96,0.93924
6200.81,0.94083
6177.67,0.93676
6154.52,0.93590
6131.38,0.93626
6108.23,0.93291
6085.09,0.93283
6061.94,0.92958
6038.8,0.92801
6015.65,0.92219
5992.51,0.92599
5969.37,0.92235
5946.22,0.91356
5923.08,0.91338
5899.93,0.90449
5876.79,0.89093
5853.64,0.85790
5830.5,0.82756
5807.35,0.78826
5784.21,0.73393
5761.06,0.78148
5737.92,0.84522
5714.78,0.86000
5691.63,0.84129
5668.49,0.81495
5645.34,0.85273
5622.2,0.86712
5599.05,0.87631
5575.91,0.87772
5552.76,0.87498
5529.62,0.87509
5506.47,0.87306
5483.33,0.87971
5460.19,0.87319
5437.04,0.87750
5413.9,0.87232
5390.75,0.89170
5367.61,0.89918
5344.46,0.88036
5321.32,0.90374
5298.17,0.90355
5275.03,0.90445
5251.88,0.89652
5228.74,0.89920
5205.6,0.88852
5182.45,0.90071
5159.31,0.90165
5136.16,0.90669
5113.02,0.90625
5089.87,0.90816
5066.73,0.90889
5043.58,0.91003
5020.44,0.90980
4997.29,0.90734
4974.15,0.90395
4951.01,0.90977
4927.86,0.90933
4904.72,0.91012
4881.57,0.90891
4858.43,0.91124
4835.28,0.91317
4812.14,0.91297
4788.99,0.91439
4765.85,0.91252
4742.7,0.91401
4719.56,0.91244
4696.42,0.91049
4673.27,0.90369
4650.13,0.91231
4626.98,0.91580
4603.84,0.91504
4580.69,0.91449
4557.55,0.91217
4534.4,0.90811
4511.26,0.90100
4488.11,0.88969
4464.97,0.87310
4441.83,0.83974
4418.68,0.80939
4395.54,0.75734
4372.39,0.67310
4349.25,0.51440
4326.1,0.28127
4302.96,0.59853
4279.81,0.57825
4256.67,0.38664
4233.52,0.53493
4210.38,0.50579
4187.24,0.45309
4164.09,0.46858
4140.95,0.48495
4117.8,0.50198
4094.66,0.51191
4071.51,0.58682
4048.37,0.61726
4025.22,0.63608
4002.08,0.69246
3978.93,0.68647
3955.79,0.70378
3932.65,0.69047
3909.5,0.69795
3886.36,0.68947
3863.21,0.69428
3840.07,0.69011
3816.92,0.70250
3793.78,0.75084
3770.63,0.75413
3747.49,0.72417
3724.34,0.73851
3701.2,0.74687
3678.06,0.72140
3654.91,0.71263
3631.77,0.70930
3608.62,0.66202
3585.48,0.77312
3562.33,0.80723
3539.19,0.83294
3516.04,0.83583
3492.9,0.82364
3469.75,0.73100
3446.61,0.69812
3423.47,0.79966
3400.32,0.81225
3377.18,0.80162
3354.03,0.81190
3330.89,0.82318
3307.74,0.82489
3284.6,0.82533
3261.45,0.81920
3238.31,0.81259
3215.16,0.79387
3192.02,0.77274
3168.87,0.74936
3145.73,0.72532
3122.59,0.68291
3099.44,0.58847
3076.3,0.46303
3053.15,0.36684
3030.01,0.23207
3006.86,0.14195
2983.72,0.03373
2960.57,0.00084
2937.43,0.00046
2914.28,0.00063
2891.14,0.00067
2868,0.00025
2844.85,0.00051
2821.71,0.00859
2798.56,0.08058
2775.42,0.21198
2752.27,0.27473
2729.13,0.29554
2705.98,0.34652
2682.84,0.31783
2659.69,0.32342
2636.55,0.34662
2613.41,0.43513
2590.26,0.52013
2567.12,0.60856
2543.97,0.65709
2520.83,0.68065
2497.68,0.70613
2474.54,0.69261
2451.39,0.75072
2428.25,0.75977
2405.1,0.74828
2381.96,0.71752
2358.82,0.51513
2335.67,0.52039
2312.53,0.61334
2289.38,0.71565
2266.24,0.74565
2243.09,0.76800
2219.95,0.79790
2196.8,0.78238
2173.66,0.75277
2150.51,0.74340
2127.37,0.79001
2104.23,0.80299
2081.08,0.79815
2057.94,0.77674
2034.79,0.73257
2011.65,0.73393
1988.5,0.79725
1965.36,0.79505
1942.21,0.77943
1919.07,0.76164
1895.92,0.71073
1872.78,0.70546
1849.64,0.70095
1826.49,0.63744
1803.35,0.55090
1780.2,0.38596
1757.06,0.04990
1733.91,0.00068
1710.77,0.15841
1687.62,0.34598
1664.48,0.53073
1641.33,0.55864
1618.19,0.64701
1595.05,0.65948
1571.9,0.62019
1548.76,0.58054
1525.61,0.51102
1502.47,0.43269
1479.32,0.11085
1456.18,0.00099
1433.03,0.02323
1409.89,0.26823
1386.74,0.07719
1363.6,0.00234
1340.46,0.22032
1317.31,0.24495
1294.17,0.12731
1271.02,0.01639
1247.88,0.00026
1224.73,0.00040
1201.59,0.09020
1178.44,0.20758
1155.3,0.17900
1132.15,0.12212
1109.01,0.15745
1085.87,0.12633
1062.72,0.07626
1039.58,0.02430
1016.43,0.00186
993.287,0.20852
970.142,0.18347
946.998,0.17334
923.853,0.38727
900.709,0.48671
877.564,0.50568
854.42,0.53583
831.275,0.60693
808.131,0.59005
784.986,0.62671
761.842,0.56781
738.697,0.30973
715.552,0.04948
692.408,0.69648
669.263,0.67324
646.119,0.56725
622.974,0.54695
599.83,0.52181

File: PEVA_0.18_IS_Trans_S_240819_R2.dpt
7496.91,0.93866
7473.76,0.92663
7450.62,0.94174
7427.47,0.92012
7404.33,0.94099
7381.18,0.91891
7358.04,0.93166
7334.89,0.93689
7311.75,0.91318
7288.61,0.93009
7265.46,0.92109
7242.32,0.89574
7219.17,0.92182
7196.03,0.92000
7172.88,0.89778
7149.74,0.92280
7126.59,0.92369
7103.45,0.91442
7080.3,0.91834
7057.16,0.91587
7034.02,0.92119
7010.87,0.92000
6987.73,0.91254
6964.58,0.91945
6941.44,0.92087
6918.29,0.91716
6895.15,0.92007
6872,0.92685
6848.86,0.92378
6825.71,0.93329
6802.57,0.93139
6779.43,0.93991
6756.28,0.93236
6733.14,0.93800
6709.99,0.93462
6686.85,0.93490
6663.7,0.93564
6640.56,0.93722
6617.41,0.94174
6594.27,0.93297
6571.12,0.93757
6547.98,0.93299
6524.84,0.93251
6501.69,0.93476
6478.55,0.93167
6455.4,0.93778
6432.26,0.94255
6409.11,0.93751
6385.97,0.93657
6362.82,0.94133
6339.68,0.94120
6316.53,0.93670
6293.39,0.93569
6270.24,0.94033
6247.1,0.93514
6223.96,0.93694
6200.81,0.93494
6177.67,0.93559
6154.52,0.93116
6131.38,0.92934
6108.23,0.92991
6085.09,0.93017
6061.94,0.92833
6038.8,0.92627
6015.65,0.92223
5992.51,0.92193
5969.37,0.92160
5946.22,0.91250
5923.08,0.91074
5899.93,0.90468
5876.79,0.88673
5853.64,0.85644
5830.5,0.82573
5807.35,0.78817
5784.21,0.73446
5761.06,0.77835
5737.92,0.84411
5714.78,0.85544
5691.63,0.83718
5668.49,0.81269
5645.34,0.85115
5622.2,0.86781
5599.05,0.87502
5575.91,0.87236
5552.76,0.86944
5529.62,0.87326
5506.47,0.86646
5483.33,0.87686
5460.19,0.86964
5437.04,0.87194
5413.9,0.86002
5390.75,0.88546
5367.61,0.89408
5344.46,0.87219
5321.32,0.89993
5298.17,0.89890
5275.03,0.90055
5251.88,0.89336
5228.74,0.89139
5205.6,0.88195
5182.45,0.89626
5159.31,0.89727
5136.16,0.90449
5113.02,0.90415
5089.87,0.90553
5066.73,0.90669
5043.58,0.90922
5020.44,0.90876
4997.29,0.90705
4974.15,0.90334
4951.01,0.90534
4927.86,0.90776
4904.72,0.90770
4881.57,0.90933
4858.43,0.90975
4835.28,0.91153
4812.14,0.91213
4788.99,0.91205
4765.85,0.91068
4742.7,0.91147
4719.56,0.91152
4696.42,0.90789
4673.27,0.90065
4650.13,0.91038
4626.98,0.91321
4603.84,0.91168
4580.69,0.91252
4557.55,0.91080
4534.4,0.90615
4511.26,0.89922
4488.11,0.88639
4464.97,0.87149
4441.83,0.83792
4418.68,0.80768
4395.54,0.75381
4372.39,0.67128
4349.25,0.51127
4326.1,0.27915
4302.96,0.59703
4279.81,0.57639
4256.67,0.38467
4233.52,0.53318
4210.38,0.50399
4187.24,0.45102
4164.09,0.46521
4140.95,0.48353
4117.8,0.50030
4094.66,0.50956
4071.51,0.58461
4048.37,0.61506
4025.22,0.63344
4002.08,0.68950
3978.93,0.68294
3955.79,0.69975
3932.65,0.68491
3909.5,0.69433
3886.36,0.68021
3863.21,0.68066
3840.07,0.67112
3816.92,0.68701
3793.78,0.74508
3770.63,0.74411
3747.49,0.70064
3724.34,0.72771
3701.2,0.74047
3678.06,0.70526
3654.91,0.69927
3631.77,0.69625
3608.62,0.64982
3585.48,0.75967
3562.33,0.79352
3539.19,0.82345
3516.04,0.82766
3492.9,0.81772
3469.75,0.72683
3446.61,0.69078
3423.47,0.79479
3400.32,0.80717
3377.18,0.79939
3354.03,0.80765
3330.89,0.81982
3307.74,0.82207
3284.6,0.82135
3261.45,0.81635
3238.31,0.80897
3215.16,0.79082
3192.02,0.76935
3168.87,0.74700
3145.73,0.72301
3122.59,0.67959
3099.44,0.58564
3076.3,0.46089
3053.15,0.36425
3030.01,0.23100
3006.86,0.14118
2983.72,0.03339
2960.57,0.00031
2937.43,0.00063
2914.28,0.00051
2891.14,0.00070
2868,0.00071
2844.85,0.00017
2821.71,0.00853
2798.56,0.07978
2775.42,0.21091
2752.27,0.27376
2729.13,0.29341
2705.98,0.34553
2682.84,0.31649
2659.69,0.32159
2636.55,0.34508
2613.41,0.43343
2590.26,0.51896
2567.12,0.60613
2543.97,0.65459
2520.83,0.67831
2497.68,0.70430
2474.54,0.69084
2451.39,0.74850
2428.25,0.75747
2405.1,0.74524
2381.96,0.72484
2358.82,0.56746
2335.67,0.55976
2312.53,0.63294
2289.38,0.71706
2266.24,0.74472
2243.09,0.76498
2219.95,0.79479
2196.8,0.77896
2173.66,0.75107
2150.51,0.74138
2127.37,0.78740
2104.23,0.79968
2081.08,0.79468
2057.94,0.77390
2034.79,0.73072
2011.65,0.73234
1988.5,0.79307
1965.36,0.78928
1942.21,0.77276
1919.07,0.75549
1895.92,0.70652
1872.78,0.70121
1849.64,0.69553
1826.49,0.62935
1803.35,0.54604
1780.2,0.38117
1757.06,0.04896
1733.91,0.00032
1710.77,0.15377
1687.62,0.33749
1664.48,0.52243
1641.33,0.54985
1618.19,0.63437
1595.05,0.65272
1571.9,0.61045
1548.76,0.57061
1525.61,0.49604
1502.47,0.42515
1479.32,0.10914
1456.18,0.00097
1433.03,0.02252
1409.89,0.26633
1386.74,0.07615
1363.6,0.00243
1340.46,0.21709
1317.31,0.24280
1294.17,0.12633
1271.02,0.01606
1247.88,0.00036
1224.73,0.00027
1201.59,0.08977
1178.44,0.20743
1155.3,0.17864
1132.15,0.12125
1109.01,0.15703
1085.87,0.12541
1062.72,0.07510
1039.58,0.02419
1016.43,0.00152
993.287,0.20676
970.142,0.18251
946.998,0.17151
923.853,0.38526
900.709,0.48497
877.564,0.50413
854.42,0.53341
831.275,0.60387
808.131,0.58710
784.986,0.62459
761.842,0.56535
738.697,0.30755
715.552,0.04968
692.408,0.70100
669.263,0.69328
646.119,0.56998
622.974,0.54297
599.83,0.51536

File: PEVA_0.18_IS_Trans_S_240819_R3.dpt
7496.91,0.93206
7473.76,0.92080
7450.62,0.94066
7427.47,0.93886
7404.33,0.94098
7381.18,0.92603
7358.04,0.93068
7334.89,0.94077
7311.75,0.92587
7288.61,0.93315
7265.46,0.92811
7242.32,0.89985
7219.17,0.89880
7196.03,0.91062
7172.88,0.91890
7149.74,0.92092
7126.59,0.92887
7103.45,0.91541
7080.3,0.90510
7057.16,0.90754
7034.02,0.91817
7010.87,0.91797
6987.73,0.91782
6964.58,0.91821
6941.44,0.91957
6918.29,0.92099
6895.15,0.92435
6872,0.92449
6848.86,0.92190
6825.71,0.92676
6802.57,0.91561
6779.43,0.93778
6756.28,0.93431
6733.14,0.93198
6709.99,0.93639
6686.85,0.93125
6663.7,0.93478
6640.56,0.93965
6617.41,0.93146
6594.27,0.93721
6571.12,0.93281
6547.98,0.93305
6524.84,0.93153
6501.69,0.93298
6478.55,0.93183
6455.4,0.92897
6432.26,0.93286
6409.11,0.93672
6385.97,0.93641
6362.82,0.93686
6339.68,0.93488
6316.53,0.93172
6293.39,0.93753
6270.24,0.93629
6247.1,0.93611
6223.96,0.93468
6200.81,0.93253
6177.67,0.92679
6154.52,0.93092
6131.38,0.93268
6108.23,0.93080
6085.09,0.92222
6061.94,0.92914
6038.8,0.92406
6015.65,0.92090
5992.51,0.91281
5969.37,0.91710
5946.22,0.91221
5923.08,0.90990
5899.93,0.89814
5876.79,0.88624
5853.64,0.85121
5830.5,0.82252
5807.35,0.78432
5784.21,0.73014
5761.06,0.77780
5737.92,0.84356
5714.78,0.85806
5691.63,0.83449
5668.49,0.80810
5645.34,0.84819
5622.2,0.86488
5599.05,0.87298
5575.91,0.87111
5552.76,0.86697
5529.62,0.87148
5506.47,0.86572
5483.33,0.87177
5460.19,0.86871
5437.04,0.86828
5413.9,0.86345
5390.75,0.88490
5367.61,0.89083
5344.46,0.87213
5321.32,0.89934
5298.17,0.89627
5275.03,0.89906
5251.88,0.88940
5228.74,0.88889
5205.6,0.88073
5182.45,0.89236
5159.31,0.89523
5136.16,0.89906
5113.02,0.90070
5089.87,0.89975
5066.73,0.90384
5043.58,0.90426
5020.44,0.90500
4997.29,0.90148
4974.15,0.90043
4951.01,0.90313
4927.86,0.90658
4904.72,0.90584
4881.57,0.90540
4858.43,0.90528
4835.28,0.90684
4812.14,0.90782
4788.99,0.90991
4765.85,0.90853
4742.7,0.90848
4719.56,0.90814
4696.42,0.90491
4673.27,0.89881
4650.13,0.90579
4626.98,0.90991
4603.84,0.90919
4580.69,0.90893
4557.55,0.90612
4534.4,0.90218
4511.26,0.89449
4488.11,0.88354
4464.97,0.86731
4441.83,0.83573
4418.68,0.80358
4395.54,0.75088
4372.39,0.66809
4349.25,0.50866
4326.1,0.27757
4302.96,0.59282
4279.81,0.57274
4256.67,0.38352
4233.52,0.53042
4210.38,0.50049
4187.24,0.44856
4164.09,0.46289
4140.95,0.48098
4117.8,0.49721
4094.66,0.50617
4071.51,0.58185
4048.37,0.61160
4025.22,0.63032
4002.08,0.68688
3978.93,0.67968
3955.79,0.69787
3932.65,0.68382
3909.5,0.69259
3886.36,0.68042
3863.21,0.68282
3840.07,0.67470
3816.92,0.68921
3793.78,0.74325
3770.63,0.74461
3747.49,0.70856
3724.34,0.73183
3701.2,0.74096
3678.06,0.70788
3654.91,0.70076
3631.77,0.69974
3608.62,0.65114
3585.48,0.76065
3562.33,0.79273
3539.19,0.82022
3516.04,0.82489
3492.9,0.81639
3469.75,0.72481
3446.61,0.68900
3423.47,0.79169
3400.32,0.80549
3377.18,0.79679
3354.03,0.80522
3330.89,0.81482
3307.74,0.81899
3284.6,0.81718
3261.45,0.81445
3238.31,0.80498
3215.16,0.78587
3192.02,0.76482
3168.87,0.74234
3145.73,0.72048
3122.59,0.67706
3099.44,0.58361
3076.3,0.45822
3053.15,0.36179
3030.01,0.22915
3006.86,0.14001
2983.72,0.03279
2960.57,0.00050
2937.43,0.00035
2914.28,0.00066
2891.14,0.00036
2868,0.00022
2844.85,0.00018
2821.71,0.00828
2798.56,0.07914
2775.42,0.20866
2752.27,0.27113
2729.13,0.29138
2705.98,0.34285
2682.84,0.31321
2659.69,0.31868
2636.55,0.34247
2613.41,0.43061
2590.26,0.51471
2567.12,0.60253
2543.97,0.64992
2520.83,0.67356
2497.68,0.69895
2474.54,0.68511
2451.39,0.74349
2428.25,0.75260
2405.1,0.74018
2381.96,0.72176
2358.82,0.57023
2335.67,0.56145
2312.53,0.63281
2289.38,0.71347
2266.24,0.73997
2243.09,0.75891
2219.95,0.78850
2196.8,0.77396
2173.66,0.74600
2150.51,0.73667
2127.37,0.78176
2104.23,0.79333
2081.08,0.78861
2057.94,0.76891
2034.79,0.72603
2011.65,0.72695
1988.5,0.78736
1965.36,0.78314
1942.21,0.76692
1919.07,0.75170
1895.92,0.70316
1872.78,0.69757
1849.64,0.69071
1826.49,0.62592
1803.35,0.54278
1780.2,0.37853
1757.06,0.04839
1733.91,0.00098
1710.77,0.15235
1687.62,0.33750
1664.48,0.52087
1641.33,0.54825
1618.19,0.63344
1595.05,0.64896
1571.9,0.60818
1548.76,0.56863
1525.61,0.49710
1502.47,0.42432
1479.32,0.10828
1456.18,0.00082
1433.03,0.02248
1409.89,0.26395
1386.74,0.07553
1363.6,0.00227
1340.46,0.21597
1317.31,0.24007
1294.17,0.12475
1271.02,0.01551
1247.88,0.00056
1224.73,0.00037
1201.59,0.08858
1178.44,0.20499
1155.3,0.17675
1132.15,0.11951
1109.01,0.15493
1085.87,0.12339
1062.72,0.07368
1039.58,0.02425
1016.43,0.00149
993.287,0.20461
970.142,0.18021
946.998,0.16969
923.853,0.38099
900.709,0.48053
877.564,0.49913
854.42,0.52809
831.275,0.59822
808.131,0.58030
784.986,0.61596
761.842,0.55906
738.697,0.30501
715.552,0.04951
692.408,0.69241
669.263,0.69010
646.119,0.56687
622.974,0.53932
599.83,0.51113

File: PEVA_0.18_IS_Trans_S_240819_R4.dpt
7496.91,0.93071
7473.76,0.94126
7450.62,0.93053
7427.47,0.93653
7404.33,0.91930
7381.18,0.91867
7358.04,0.93244
7334.89,0.92554
7311.75,0.92015
7288.61,0.91155
7265.46,0.91754
7242.32,0.91307
7219.17,0.89859
7196.03,0.91372
7172.88,0.89831
7149.74,0.91076
7126.59,0.91596
7103.45,0.92281
7080.3,0.91981
7057.16,0.91185
7034.02,0.91484
7010.87,0.91745
6987.73,0.92151
6964.58,0.91846
6941.44,0.91651
6918.29,0.91763
6895.15,0.92223
6872,0.92824
6848.86,0.92543
6825.71,0.91919
6802.57,0.91902
6779.43,0.93379
6756.28,0.92460
6733.14,0.94043
6709.99,0.93175
6686.85,0.93363
6663.7,0.93646
6640.56,0.93479
6617.41,0.92869
6594.27,0.92733
6571.12,0.92967
6547.98,0.92892
6524.84,0.92880
6501.69,0.93464
6478.55,0.93120
6455.4,0.92668
6432.26,0.93363
6409.11,0.93314
6385.97,0.93269
6362.82,0.94112
6339.68,0.93707
6316.53,0.93176
6293.39,0.92673
6270.24,0.93351
6247.1,0.93307
6223.96,0.93456
6200.81,0.93369
6177.67,0.92625
6154.52,0.93008
6131.38,0.92391
6108.23,0.92219
6085.09,0.92132
6061.94,0.92498
6038.8,0.92065
6015.65,0.92075
5992.51,0.92064
5969.37,0.91757
5946.22,0.90923
5923.08,0.90633
5899.93,0.90062
5876.79,0.88900
5853.64,0.85556
5830.5,0.82109
5807.35,0.78357
5784.21,0.73014
5761.06,0.77684
5737.92,0.83892
5714.78,0.85410
5691.63,0.83223
5668.49,0.80583
5645.34,0.84427
5622.2,0.86202
5599.05,0.87109
5575.91,0.87137
5552.76,0.86625
5529.62,0.86920
5506.47,0.86665
5483.33,0.87302
5460.19,0.86793
5437.04,0.87170
5413.9,0.86895
5390.75,0.88556
5367.61,0.89039
5344.46,0.87791
5321.32,0.89683
5298.17,0.89415
5275.03,0.89626
5251.88,0.89124
5228.74,0.89221
5205.6,0.88679
5182.45,0.89526
5159.31,0.89421
5136.16,0.89870
5113.02,0.89972
5089.87,0.90034
5066.73,0.89997
5043.58,0.90124
5020.44,0.90370
4997.29,0.90065
4974.15,0.89711
4951.01,0.90233
4927.86,0.90350
4904.72,0.90246
4881.57,0.90394
4858.43,0.90245
4835.28,0.90679
4812.14,0.90726
4788.99,0.90844
4765.85,0.90552
4742.7,0.90676
4719.56,0.90568
4696.42,0.90332
4673.27,0.89593
4650.13,0.90491
4626.98,0.90786
4603.84,0.90758
4580.69,0.90633
4557.55,0.90455
4534.4,0.89994
4511.26,0.89278
4488.11,0.88208
4464.97,0.86591
4441.83,0.83242
4418.68,0.80218
4395.54,0.74990
4372.39,0.66727
4349.25,0.50883
4326.1,0.27797
4302.96,0.59221
4279.81,0.57311
4256.67,0.38349
4233.52,0.52960
4210.38,0.50086
4187.24,0.44897
4164.09,0.46356
4140.95,0.48037
4117.8,0.49657
4094.66,0.50639
4071.51,0.58084
4048.37,0.61035
4025.22,0.62996
4002.08,0.68510
3978.93,0.68026
3955.79,0.69831
3932.65,0.68844
3909.5,0.69351
3886.36,0.68761
3863.21,0.69436
3840.07,0.69361
3816.92,0.70330
3793.78,0.74629
3770.63,0.75168
3747.49,0.73067
3724.34,0.74796
3701.2,0.74903
3678.06,0.71974
3654.91,0.70597
3631.77,0.70824
3608.62,0.66094
3585.48,0.77073
3562.33,0.79897
3539.19,0.81836
3516.04,0.82341
3492.9,0.81450
3469.75,0.72305
3446.61,0.69110
3423.47,0.79133
3400.32,0.80534
3377.18,0.79398
3354.03,0.80454
3330.89,0.81490
3307.74,0.81772
3284.6,0.81730
3261.45,0.81186
3238.31,0.80509
3215.16,0.78723
3192.02,0.76552
3168.87,0.74301
3145.73,0.72019
3122.59,0.67819
3099.44,0.58332
3076.3,0.45839
3053.15,0.36261
3030.01,0.22962
3006.86,0.14033
2983.72,0.03327
2960.57,0.00077
2937.43,0.00038
2914.28,0.00066
2891.14,0.00050
2868,0.00033
2844.85,0.00067
2821.71,0.00837
2798.56,0.07902
2775.42,0.20979
2752.27,0.27157
2729.13,0.29231
2705.98,0.34319
2682.84,0.31428
2659.69,0.31907
2636.55,0.34251
2613.41,0.43051
2590.26,0.51493
2567.12,0.60244
2543.97,0.65057
2520.83,0.67322
2497.68,0.69939
2474.54,0.68606
2451.39,0.74346
2428.25,0.75207
2405.1,0.74080
2381.96,0.73469
2358.82,0.64417
2335.67,0.61232
2312.53,0.65963
2289.38,0.71697
2266.24,0.74290
2243.09,0.76110
2219.95,0.79019
2196.8,0.77430
2173.66,0.74575
2150.51,0.73600
2127.37,0.78188
2104.23,0.79426
2081.08,0.79036
2057.94,0.76981
2034.79,0.72573
2011.65,0.72707
1988.5,0.78921
1965.36,0.78688
1942.21,0.77317
1919.07,0.75643
1895.92,0.70524
1872.78,0.69937
1849.64,0.69428
1826.49,0.63431
1803.35,0.54725
1780.2,0.38334
1757.06,0.04951
1733.91,0.00073
1710.77,0.15398
1687.62,0.34497
1664.48,0.52650
1641.33,0.55331
1618.19,0.64235
1595.05,0.65274
1571.9,0.61690
1548.76,0.57898
1525.61,0.51325
1502.47,0.43165
1479.32,0.10932
1456.18,0.00097
1433.03,0.02291
1409.89,0.26571
1386.74,0.07664
1363.6,0.00247
1340.46,0.21914
1317.31,0.24220
1294.17,0.12529
1271.02,0.01599
1247.88,0.00035
1224.73,0.00055
1201.59,0.08903
1178.44,0.20590
1155.3,0.17774
1132.15,0.12044
1109.01,0.15590
1085.87,0.12404
1062.72,0.07444
1039.58,0.02404
1016.43,0.00200
993.287,0.20592
970.142,0.18117
946.998,0.17115
923.853,0.38287
900.709,0.48278
877.564,0.49991
854.42,0.52906
831.275,0.60023
808.131,0.58280
784.986,0.61959
761.842,0.56227
738.697,0.30696
715.552,0.04934
692.408,0.70517
669.263,0.71581
646.119,0.57341
622.974,0.53863
599.83,0.51779