Folder: fsri_materials_database/01_Data/PEVA/FTIR/IS (part 2)

File: PEVA_0.10_IS_S_240808_R6.dpt
7496.93,0.10421
7473.78,0.09897
7450.64,0.09520
7427.49,0.10924
7404.35,0.08833
7381.2,0.11115
7358.06,0.08427
7334.91,0.09861
7311.77,0.09284
7288.62,0.09537
7265.48,0.10038
7242.34,0.09183
7219.19,0.09201
7196.05,0.08889
7172.9,0.10441
7149.76,0.09040
7126.61,0.11386
7103.47,0.09195
7080.32,0.09464
7057.18,0.10438
7034.03,0.09819
7010.89,0.09019
6987.74,0.10099
6964.6,0.09261
6941.46,0.10093
6918.31,0.09987
6895.17,0.09612
6872.02,0.09998
6848.88,0.09758
6825.73,0.09246
6802.59,0.09672
6779.44,0.10156
6756.3,0.09453
6733.15,0.09045
6710.01,0.09184
6686.86,0.09640
6663.72,0.09603
6640.58,0.09799
6617.43,0.09198
6594.29,0.10282
6571.14,0.09450
6548,0.09940
6524.85,0.09054
6501.71,0.09908
6478.56,0.09755
6455.42,0.09052
6432.27,0.09968
6409.13,0.09402
6385.98,0.09469
6362.84,0.09660
6339.7,0.09659
6316.55,0.09738
6293.41,0.09649
6270.26,0.09348
6247.12,0.09187
6223.97,0.09928
6200.83,0.09895
6177.68,0.09480
6154.54,0.09626
6131.39,0.09807
6108.25,0.09822
6085.1,0.09526
6061.96,0.09812
6038.82,0.09509
6015.67,0.09484
5992.53,0.09689
5969.38,0.09611
5946.24,0.09418
5923.09,0.09692
5899.95,0.09410
5876.8,0.09703
5853.66,0.09459
5830.51,0.09301
5807.37,0.08589
5784.22,0.08555
5761.08,0.09019
5737.94,0.09378
5714.79,0.09455
5691.65,0.08936
5668.5,0.09031
5645.36,0.09378
5622.21,0.09312
5599.07,0.09634
5575.92,0.09512
5552.78,0.09586
5529.63,0.09529
5506.49,0.09718
5483.34,0.09664
5460.2,0.09808
5437.06,0.09547
5413.91,0.09557
5390.77,0.09325
5367.62,0.09805
5344.48,0.09817
5321.33,0.09767
5298.19,0.09710
5275.04,0.09824
5251.9,0.09835
5228.75,0.09761
5205.61,0.09715
5182.46,0.09765
5159.32,0.09805
5136.18,0.09775
5113.03,0.09830
5089.89,0.09733
5066.74,0.09890
5043.6,0.09915
5020.45,0.09739
4997.31,0.09854
4974.16,0.09907
4951.02,0.09907
4927.87,0.09928
4904.73,0.09882
4881.58,0.09983
4858.44,0.09981
4835.3,0.09907
4812.15,0.09976
4789.01,0.09937
4765.86,0.09823
4742.72,0.10001
4719.57,0.10001
4696.43,0.10002
4673.28,0.10073
4650.14,0.09980
4626.99,0.09942
4603.85,0.10038
4580.7,0.09949
4557.56,0.09932
4534.42,0.09938
4511.27,0.09954
4488.13,0.09849
4464.98,0.09934
4441.84,0.09779
4418.69,0.09615
4395.55,0.09205
4372.4,0.08748
4349.26,0.08031
4326.11,0.06698
4302.97,0.08308
4279.82,0.08366
4256.68,0.07250
4233.54,0.08066
4210.39,0.07908
4187.25,0.07463
4164.1,0.07556
4140.96,0.07697
4117.81,0.07717
4094.67,0.07726
4071.52,0.08306
4048.38,0.08398
4025.23,0.08547
4002.09,0.09019
3978.94,0.08950
3955.8,0.08956
3932.66,0.08963
3909.51,0.08825
3886.37,0.08893
3863.22,0.09024
3840.08,0.09032
3816.93,0.09092
3793.79,0.09278
3770.64,0.09212
3747.5,0.09173
3724.35,0.09242
3701.21,0.09119
3678.06,0.09172
3654.92,0.09046
3631.78,0.08973
3608.63,0.08563
3585.49,0.09312
3562.34,0.09490
3539.2,0.09562
3516.05,0.09656
3492.91,0.09486
3469.76,0.09425
3446.62,0.09367
3423.47,0.09344
3400.33,0.09307
3377.18,0.09220
3354.04,0.09267
3330.9,0.09169
3307.75,0.09351
3284.61,0.09307
3261.46,0.09277
3238.32,0.09296
3215.17,0.09207
3192.03,0.08988
3168.88,0.08951
3145.74,0.08756
3122.59,0.08489
3099.45,0.07877
3076.3,0.07278
3053.16,0.06768
3030.02,0.06159
3006.87,0.05653
2983.73,0.05164
2960.58,0.04611
2937.44,0.03913
2914.29,0.08799
2891.15,0.06821
2868,0.05895
2844.86,0.08409
2821.71,0.06785
2798.57,0.06668
2775.42,0.07071
2752.28,0.07344
2729.14,0.07337
2705.99,0.07436
2682.85,0.07327
2659.7,0.07223
2636.56,0.07316
2613.41,0.07698
2590.27,0.08131
2567.12,0.08788
2543.98,0.08952
2520.83,0.09001
2497.69,0.09496
2474.55,0.09561
2451.4,0.09604
2428.26,0.09611
2405.11,0.09661
2381.97,0.09518
2358.82,0.09281
2335.68,0.08976
2312.53,0.09122
2289.39,0.09401
2266.24,0.09749
2243.1,0.09527
2219.95,0.09731
2196.81,0.09934
2173.67,0.09683
2150.52,0.09606
2127.38,0.09965
2104.23,0.09813
2081.09,0.09785
2057.94,0.09782
2034.8,0.09405
2011.65,0.09425
1988.51,0.09944
1965.36,0.09831
1942.22,0.09778
1919.07,0.09770
1895.93,0.09437
1872.79,0.09826
1849.64,0.09920
1826.5,0.09838
1803.35,0.09773
1780.21,0.09646
1757.06,0.09419
1733.92,0.09206
1710.77,0.09168
1687.63,0.09593
1664.48,0.09292
1641.34,0.09068
1618.19,0.09420
1595.05,0.09017
1571.91,0.08823
1548.76,0.09200
1525.62,0.08641
1502.47,0.07578
1479.33,0.05716
1456.18,0.06056
1433.04,0.06477
1409.89,0.08079
1386.75,0.07464
1363.6,0.06971
1340.46,0.07259
1317.31,0.07135
1294.17,0.08168
1271.03,0.07701
1247.88,0.07997
1224.74,0.09748
1201.59,0.08236
1178.45,0.08021
1155.3,0.09962
1132.16,0.08015
1109.01,0.08519
1085.87,0.10150
1062.72,0.07848
1039.58,0.09128
1016.43,0.10680
993.29,0.07780
970.145,0.09700
947,0.11111
923.856,0.07047
900.711,0.10253
877.567,0.11038
854.422,0.06591
831.277,0.10624
808.133,0.10760
784.988,0.05794
761.844,0.09210
738.699,0.08397
715.554,0.06824
692.41,0.11900
669.265,0.06054
646.12,0.09158
622.976,0.14108
599.831,0.06373

File: PEVA_0.10_IS_S_240808_R7.dpt
7496.93,0.10047
7473.78,0.10108
7450.64,0.08387
7427.49,0.08876
7404.35,0.09277
7381.2,0.10553
7358.06,0.10293
7334.91,0.11099
7311.77,0.09894
7288.62,0.10613
7265.48,0.10016
7242.34,0.10107
7219.19,0.10229
7196.05,0.09303
7172.9,0.09651
7149.76,0.09572
7126.61,0.09575
7103.47,0.09074
7080.32,0.09695
7057.18,0.09791
7034.03,0.09248
7010.89,0.10157
6987.74,0.09970
6964.6,0.10345
6941.46,0.09505
6918.31,0.09687
6895.17,0.10378
6872.02,0.09722
6848.88,0.08935
6825.73,0.09701
6802.59,0.10029
6779.44,0.09881
6756.3,0.10260
6733.15,0.10338
6710.01,0.09077
6686.86,0.09228
6663.72,0.09761
6640.58,0.09804
6617.43,0.09406
6594.29,0.09523
6571.14,0.10438
6548,0.09857
6524.85,0.09882
6501.71,0.09902
6478.56,0.09878
6455.42,0.09576
6432.27,0.09777
6409.13,0.09626
6385.98,0.09646
6362.84,0.10202
6339.7,0.09923
6316.55,0.09779
6293.41,0.09927
6270.26,0.09872
6247.12,0.09551
6223.97,0.09738
6200.83,0.10011
6177.68,0.09797
6154.54,0.09808
6131.39,0.09997
6108.25,0.09701
6085.1,0.09634
6061.96,0.09513
6038.82,0.09672
6015.67,0.09771
5992.53,0.10178
5969.38,0.09582
5946.24,0.09875
5923.09,0.09288
5899.95,0.09474
5876.8,0.09681
5853.66,0.09021
5830.51,0.08908
5807.37,0.09030
5784.22,0.08870
5761.08,0.08748
5737.94,0.09137
5714.79,0.09409
5691.65,0.09255
5668.5,0.09043
5645.36,0.09362
5622.21,0.09322
5599.07,0.09611
5575.92,0.09550
5552.78,0.09540
5529.63,0.09674
5506.49,0.09445
5483.34,0.09574
5460.2,0.09501
5437.06,0.09525
5413.91,0.09750
5390.77,0.09442
5367.62,0.09767
5344.48,0.09713
5321.33,0.09910
5298.19,0.09752
5275.04,0.09543
5251.9,0.09663
5228.75,0.09685
5205.61,0.09849
5182.46,0.09692
5159.32,0.09705
5136.18,0.09782
5113.03,0.09712
5089.89,0.09915
5066.74,0.09881
5043.6,0.09853
5020.45,0.09771
4997.31,0.09805
4974.16,0.09797
4951.02,0.09906
4927.87,0.09735
4904.73,0.09833
4881.58,0.09852
4858.44,0.10036
4835.3,0.09858
4812.15,0.09915
4789.01,0.09993
4765.86,0.09857
4742.72,0.09909
4719.57,0.09947
4696.43,0.10036
4673.28,0.09995
4650.14,0.09908
4626.99,0.09960
4603.85,0.09843
4580.7,0.09972
4557.56,0.10021
4534.42,0.09898
4511.27,0.09896
4488.13,0.09900
4464.98,0.09735
4441.84,0.09775
4418.69,0.09588
4395.55,0.09267
4372.4,0.08842
4349.26,0.08038
4326.11,0.06641
4302.97,0.08363
4279.82,0.08294
4256.68,0.07205
4233.54,0.08073
4210.39,0.07878
4187.25,0.07438
4164.1,0.07563
4140.96,0.07641
4117.81,0.07686
4094.67,0.07792
4071.52,0.08224
4048.38,0.08358
4025.23,0.08696
4002.09,0.08879
3978.94,0.08806
3955.8,0.09044
3932.66,0.08865
3909.51,0.08844
3886.37,0.08948
3863.22,0.08889
3840.08,0.09040
3816.93,0.09081
3793.79,0.09115
3770.64,0.09258
3747.5,0.09384
3724.35,0.09234
3701.21,0.09209
3678.06,0.09248
3654.92,0.08875
3631.78,0.08973
3608.63,0.08634
3585.49,0.09239
3562.34,0.09574
3539.2,0.09591
3516.05,0.09343
3492.91,0.09669
3469.76,0.09497
3446.62,0.09167
3423.47,0.09450
3400.33,0.09319
3377.18,0.09046
3354.04,0.09305
3330.9,0.09391
3307.75,0.09137
3284.61,0.09313
3261.46,0.09500
3238.32,0.09074
3215.17,0.09045
3192.03,0.09128
3168.88,0.08889
3145.74,0.08500
3122.59,0.08448
3099.45,0.07976
3076.3,0.07303
3053.16,0.06775
3030.02,0.06105
3006.87,0.05681
2983.73,0.05104
2960.58,0.04670
2937.44,0.03892
2914.29,0.08783
2891.15,0.06743
2868,0.05790
2844.86,0.08376
2821.71,0.06789
2798.57,0.06633
2775.42,0.07024
2752.28,0.07259
2729.14,0.07178
2705.99,0.07329
2682.85,0.07310
2659.7,0.07337
2636.56,0.07294
2613.41,0.07561
2590.27,0.08235
2567.12,0.08845
2543.98,0.08861
2520.83,0.09012
2497.69,0.09519
2474.55,0.09418
2451.4,0.09531
2428.26,0.09681
2405.11,0.09531
2381.97,0.09377
2358.82,0.09436
2335.68,0.08867
2312.53,0.08976
2289.39,0.09546
2266.24,0.09530
2243.1,0.09455
2219.95,0.09897
2196.81,0.09661
2173.67,0.09634
2150.52,0.09818
2127.38,0.09722
2104.23,0.09794
2081.09,0.10023
2057.94,0.09460
2034.8,0.09433
2011.65,0.09681
1988.51,0.09493
1965.36,0.09949
1942.22,0.10015
1919.07,0.09264
1895.93,0.09652
1872.79,0.09990
1849.64,0.09406
1826.5,0.10269
1803.35,0.09782
1780.21,0.09121
1757.06,0.09967
1733.92,0.09148
1710.77,0.08750
1687.63,0.10290
1664.48,0.09064
1641.34,0.08634
1618.19,0.10080
1595.05,0.08705
1571.91,0.08394
1548.76,0.09822
1525.62,0.08570
1502.47,0.06947
1479.33,0.05580
1456.18,0.06030
1433.04,0.06399
1409.89,0.07449
1386.75,0.07189
1363.6,0.07310
1340.46,0.06716
1317.31,0.07080
1294.17,0.08570
1271.03,0.07131
1247.88,0.08207
1224.74,0.10162
1201.59,0.07635
1178.45,0.08462
1155.3,0.10175
1132.16,0.07418
1109.01,0.08939
1085.87,0.10165
1062.72,0.07469
1039.58,0.09587
1016.43,0.10459
993.29,0.07464
970.145,0.10080
947,0.10764
923.856,0.07054
900.711,0.10529
877.567,0.10633
854.422,0.06724
831.277,0.10752
808.133,0.10527
784.988,0.05857
761.844,0.09232
738.699,0.08254
715.554,0.06724
692.41,0.11759
669.265,0.06241
646.12,0.09260
622.976,0.14171
599.831,0.06547

File: PEVA_0.10_IS_S_240808_R8.dpt
7496.93,0.08921
7473.78,0.10356
7450.64,0.10243
7427.49,0.09984
7404.35,0.09345
7381.2,0.11629
7358.06,0.09632
7334.91,0.09590
7311.77,0.09167
7288.62,0.09625
7265.48,0.10329
7242.34,0.08901
7219.19,0.09070
7196.05,0.09958
7172.9,0.09864
7149.76,0.09668
7126.61,0.08928
7103.47,0.09624
7080.32,0.09794
7057.18,0.08716
7034.03,0.09340
7010.89,0.08519
6987.74,0.09207
6964.6,0.09296
6941.46,0.09495
6918.31,0.09634
6895.17,0.09323
6872.02,0.10136
6848.88,0.09689
6825.73,0.09281
6802.59,0.09355
6779.44,0.09484
6756.3,0.09633
6733.15,0.09055
6710.01,0.09517
6686.86,0.09351
6663.72,0.09550
6640.58,0.09604
6617.43,0.09537
6594.29,0.09535
6571.14,0.09578
6548,0.09590
6524.85,0.09286
6501.71,0.09177
6478.56,0.09963
6455.42,0.09988
6432.27,0.10309
6409.13,0.09876
6385.98,0.09904
6362.84,0.09282
6339.7,0.09614
6316.55,0.10109
6293.41,0.09747
6270.26,0.09393
6247.12,0.09770
6223.97,0.09411
6200.83,0.09877
6177.68,0.09451
6154.54,0.09840
6131.39,0.09420
6108.25,0.10120
6085.1,0.09838
6061.96,0.09627
6038.82,0.09408
6015.67,0.09811
5992.53,0.10091
5969.38,0.09670
5946.24,0.09650
5923.09,0.09657
5899.95,0.09660
5876.8,0.09278
5853.66,0.08986
5830.51,0.09189
5807.37,0.09034
5784.22,0.08450
5761.08,0.08806
5737.94,0.09475
5714.79,0.09678
5691.65,0.09477
5668.5,0.09305
5645.36,0.09571
5622.21,0.09553
5599.07,0.09783
5575.92,0.09542
5552.78,0.09714
5529.63,0.09713
5506.49,0.09538
5483.34,0.09786
5460.2,0.09684
5437.06,0.09570
5413.91,0.09582
5390.77,0.09814
5367.62,0.09536
5344.48,0.09838
5321.33,0.09775
5298.19,0.09770
5275.04,0.09810
5251.9,0.09836
5228.75,0.09589
5205.61,0.09864
5182.46,0.09720
5159.32,0.09731
5136.18,0.09725
5113.03,0.09775
5089.89,0.09756
5066.74,0.09841
5043.6,0.09798
5020.45,0.09882
4997.31,0.09949
4974.16,0.09648
4951.02,0.09970
4927.87,0.09885
4904.73,0.09895
4881.58,0.10022
4858.44,0.09876
4835.3,0.09912
4812.15,0.09872
4789.01,0.09846
4765.86,0.10033
4742.72,0.10063
4719.57,0.10066
4696.43,0.10070
4673.28,0.10028
4650.14,0.09974
4626.99,0.09982
4603.85,0.09898
4580.7,0.10142
4557.56,0.10010
4534.42,0.09929
4511.27,0.10032
4488.13,0.09925
4464.98,0.09828
4441.84,0.09952
4418.69,0.09669
4395.55,0.09156
4372.4,0.08938
4349.26,0.08044
4326.11,0.06616
4302.97,0.08499
4279.82,0.08338
4256.68,0.07167
4233.54,0.08124
4210.39,0.07823
4187.25,0.07565
4164.1,0.07642
4140.96,0.07697
4117.81,0.07873
4094.67,0.07804
4071.52,0.08180
4048.38,0.08593
4025.23,0.08556
4002.09,0.08898
3978.94,0.08992
3955.8,0.08984
3932.66,0.08927
3909.51,0.08978
3886.37,0.08849
3863.22,0.09004
3840.08,0.09132
3816.93,0.09001
3793.79,0.09244
3770.64,0.09286
3747.5,0.09341
3724.35,0.09271
3701.21,0.09332
3678.06,0.09259
3654.92,0.09006
3631.78,0.09054
3608.63,0.08659
3585.49,0.09346
3562.34,0.09562
3539.2,0.09634
3516.05,0.09582
3492.91,0.09540
3469.76,0.09501
3446.62,0.09358
3423.47,0.09347
3400.33,0.09432
3377.18,0.09200
3354.04,0.09202
3330.9,0.09416
3307.75,0.09309
3284.61,0.09231
3261.46,0.09548
3238.32,0.09330
3215.17,0.09056
3192.03,0.09145
3168.88,0.09081
3145.74,0.08690
3122.59,0.08376
3099.45,0.07984
3076.3,0.07398
3053.16,0.06886
3030.02,0.06250
3006.87,0.05782
2983.73,0.05142
2960.58,0.04723
2937.44,0.03892
2914.29,0.08765
2891.15,0.06760
2868,0.05830
2844.86,0.08414
2821.71,0.06819
2798.57,0.06666
2775.42,0.07130
2752.28,0.07400
2729.14,0.07349
2705.99,0.07448
2682.85,0.07295
2659.7,0.07315
2636.56,0.07337
2613.41,0.07688
2590.27,0.08260
2567.12,0.08844
2543.98,0.08964
2520.83,0.09136
2497.69,0.09575
2474.55,0.09499
2451.4,0.09679
2428.26,0.09728
2405.11,0.09569
2381.97,0.09628
2358.82,0.09492
2335.68,0.08899
2312.53,0.09213
2289.39,0.09566
2266.24,0.09496
2243.1,0.09690
2219.95,0.09937
2196.81,0.09683
2173.67,0.09894
2150.52,0.09852
2127.38,0.09692
2104.23,0.10142
2081.09,0.09974
2057.94,0.09438
2034.8,0.09752
2011.65,0.09509
1988.51,0.09552
1965.36,0.10275
1942.22,0.09867
1919.07,0.09439
1895.93,0.09964
1872.79,0.09776
1849.64,0.09633
1826.5,0.10447
1803.35,0.09587
1780.21,0.09436
1757.06,0.10074
1733.92,0.09029
1710.77,0.09083
1687.63,0.10302
1664.48,0.08988
1641.34,0.09054
1618.19,0.09973
1595.05,0.08738
1571.91,0.08806
1548.76,0.09680
1525.62,0.08541
1502.47,0.07388
1479.33,0.05676
1456.18,0.06070
1433.04,0.06415
1409.89,0.07845
1386.75,0.07536
1363.6,0.07075
1340.46,0.07161
1317.31,0.07308
1294.17,0.08269
1271.03,0.07654
1247.88,0.08252
1224.74,0.09775
1201.59,0.08344
1178.45,0.08296
1155.3,0.09869
1132.16,0.08306
1109.01,0.08624
1085.87,0.09986
1062.72,0.08314
1039.58,0.09064
1016.43,0.10676
993.29,0.08266
970.145,0.09284
947,0.11261
923.856,0.07628
900.711,0.09655
877.567,0.11354
854.422,0.06996
831.277,0.10005
808.133,0.11240
784.988,0.06142
761.844,0.08436
738.699,0.08225
715.554,0.06798
692.41,0.12297
669.265,0.07028
646.12,0.08334
622.976,0.14381
599.831,0.06994

File: PEVA_0.10_IS_S_240808_R9.dpt
7496.93,0.08333
7473.78,0.10455
7450.64,0.09116
7427.49,0.09401
7404.35,0.09676
7381.2,0.07858
7358.06,0.09449
7334.91,0.09370
7311.77,0.10156
7288.62,0.09624
7265.48,0.10195
7242.34,0.10473
7219.19,0.09737
7196.05,0.09441
7172.9,0.09769
7149.76,0.10825
7126.61,0.09302
7103.47,0.09163
7080.32,0.09681
7057.18,0.09856
7034.03,0.08995
7010.89,0.10375
6987.74,0.10201
6964.6,0.09257
6941.46,0.09190
6918.31,0.09224
6895.17,0.09307
6872.02,0.08999
6848.88,0.09365
6825.73,0.09494
6802.59,0.09228
6779.44,0.10121
6756.3,0.09840
6733.15,0.09484
6710.01,0.09610
6686.86,0.09473
6663.72,0.09795
6640.58,0.09809
6617.43,0.09645
6594.29,0.10213
6571.14,0.09452
6548,0.09879
6524.85,0.10236
6501.71,0.10220
6478.56,0.10245
6455.42,0.09727
6432.27,0.09817
6409.13,0.09686
6385.98,0.10328
6362.84,0.09458
6339.7,0.10265
6316.55,0.10424
6293.41,0.09856
6270.26,0.09483
6247.12,0.09594
6223.97,0.09329
6200.83,0.10006
6177.68,0.09470
6154.54,0.09744
6131.39,0.09603
6108.25,0.09662
6085.1,0.10054
6061.96,0.10191
6038.82,0.09648
6015.67,0.09522
5992.53,0.09572
5969.38,0.09881
5946.24,0.09827
5923.09,0.09830
5899.95,0.09952
5876.8,0.09423
5853.66,0.09310
5830.51,0.09053
5807.37,0.09342
5784.22,0.08702
5761.08,0.08829
5737.94,0.09375
5714.79,0.09314
5691.65,0.09238
5668.5,0.09141
5645.36,0.09252
5622.21,0.09588
5599.07,0.09641
5575.92,0.09733
5552.78,0.09507
5529.63,0.09687
5506.49,0.09624
5483.34,0.09522
5460.2,0.09676
5437.06,0.09595
5413.91,0.09606
5390.77,0.09717
5367.62,0.09825
5344.48,0.09856
5321.33,0.09734
5298.19,0.09870
5275.04,0.09878
5251.9,0.09896
5228.75,0.09797
5205.61,0.09846
5182.46,0.10042
5159.32,0.09950
5136.18,0.09840
5113.03,0.09946
5089.89,0.09989
5066.74,0.09929
5043.6,0.10031
5020.45,0.09839
4997.31,0.09691
4974.16,0.09872
4951.02,0.09968
4927.87,0.09948
4904.73,0.10132
4881.58,0.09801
4858.44,0.10018
4835.3,0.10085
4812.15,0.10099
4789.01,0.10150
4765.86,0.10259
4742.72,0.10080
4719.57,0.10058
4696.43,0.10171
4673.28,0.10143
4650.14,0.10159
4626.99,0.10104
4603.85,0.10188
4580.7,0.10026
4557.56,0.10239
4534.42,0.10088
4511.27,0.10088
4488.13,0.10061
4464.98,0.09987
4441.84,0.09859
4418.69,0.09731
4395.55,0.09326
4372.4,0.08973
4349.26,0.08185
4326.11,0.06665
4302.97,0.08479
4279.82,0.08463
4256.68,0.07289
4233.54,0.08113
4210.39,0.07913
4187.25,0.07659
4164.1,0.07724
4140.96,0.07755
4117.81,0.07830
4094.67,0.07908
4071.52,0.08385
4048.38,0.08605
4025.23,0.08678
4002.09,0.09023
3978.94,0.09028
3955.8,0.09121
3932.66,0.09111
3909.51,0.09026
3886.37,0.09051
3863.22,0.09064
3840.08,0.09237
3816.93,0.09258
3793.79,0.09364
3770.64,0.09357
3747.5,0.09372
3724.35,0.09468
3701.21,0.09395
3678.06,0.09315
3654.92,0.09119
3631.78,0.09074
3608.63,0.08619
3585.49,0.09536
3562.34,0.09587
3539.2,0.09639
3516.05,0.09770
3492.91,0.09744
3469.76,0.09650
3446.62,0.09619
3423.47,0.09435
3400.33,0.09402
3377.18,0.09433
3354.04,0.09362
3330.9,0.09409
3307.75,0.09525
3284.61,0.09469
3261.46,0.09441
3238.32,0.09450
3215.17,0.09382
3192.03,0.09128
3168.88,0.09039
3145.74,0.08953
3122.59,0.08716
3099.45,0.08099
3076.3,0.07277
3053.16,0.06817
3030.02,0.06242
3006.87,0.05786
2983.73,0.05228
2960.58,0.04797
2937.44,0.03911
2914.29,0.09012
2891.15,0.06940
2868,0.05958
2844.86,0.08628
2821.71,0.06967
2798.57,0.06785
2775.42,0.07181
2752.28,0.07414
2729.14,0.07477
2705.99,0.07679
2682.85,0.07543
2659.7,0.07331
2636.56,0.07397
2613.41,0.07953
2590.27,0.08327
2567.12,0.08775
2543.98,0.09231
2520.83,0.09341
2497.69,0.09482
2474.55,0.09720
2451.4,0.10054
2428.26,0.09681
2405.11,0.09763
2381.97,0.09890
2358.82,0.09347
2335.68,0.09041
2312.53,0.09545
2289.39,0.09439
2266.24,0.09776
2243.1,0.10056
2219.95,0.09798
2196.81,0.09934
2173.67,0.10176
2150.52,0.09628
2127.38,0.10059
2104.23,0.10306
2081.09,0.09831
2057.94,0.09942
2034.8,0.09861
2011.65,0.09379
1988.51,0.10096
1965.36,0.10292
1942.22,0.09749
1919.07,0.09975
1895.93,0.09852
1872.79,0.09795
1849.64,0.10188
1826.5,0.10234
1803.35,0.09698
1780.21,0.09898
1757.06,0.09929
1733.92,0.09176
1710.77,0.09439
1687.63,0.10062
1664.48,0.09318
1641.34,0.09359
1618.19,0.09869
1595.05,0.09002
1571.91,0.09038
1548.76,0.09643
1525.62,0.08667
1502.47,0.07524
1479.33,0.05805
1456.18,0.06168
1433.04,0.06553
1409.89,0.07888
1386.75,0.07632
1363.6,0.07320
1340.46,0.07097
1317.31,0.07452
1294.17,0.08503
1271.03,0.07473
1247.88,0.08563
1224.74,0.10069
1201.59,0.07973
1178.45,0.08795
1155.3,0.10070
1132.16,0.07830
1109.01,0.09313
1085.87,0.10054
1062.72,0.07827
1039.58,0.09982
1016.43,0.10435
993.29,0.08109
970.145,0.10351
947,0.10555
923.856,0.07612
900.711,0.10668
877.567,0.10549
854.422,0.07367
831.277,0.10812
808.133,0.10367
784.988,0.06515
761.844,0.09304
738.699,0.08169
715.554,0.06881
692.41,0.11617
669.265,0.06923
646.12,0.09453
622.976,0.13850
599.831,0.07099

File: PEVA_0.10_IS_S_240808_R10.dpt
7496.93,0.08754
7473.78,0.09584
7450.64,0.09649
7427.49,0.09470
7404.35,0.09044
7381.2,0.09866
7358.06,0.09789
7334.91,0.11235
7311.77,0.09781
7288.62,0.09534
7265.48,0.09731
7242.34,0.10492
7219.19,0.09532
7196.05,0.09784
7172.9,0.10085
7149.76,0.09213
7126.61,0.10408
7103.47,0.09710
7080.32,0.09999
7057.18,0.09240
7034.03,0.10084
7010.89,0.09066
6987.74,0.09672
6964.6,0.09410
6941.46,0.09645
6918.31,0.10398
6895.17,0.10018
6872.02,0.10601
6848.88,0.09805
6825.73,0.09909
6802.59,0.09522
6779.44,0.10110
6756.3,0.09555
6733.15,0.10114
6710.01,0.09679
6686.86,0.09710
6663.72,0.09944
6640.58,0.09963
6617.43,0.09846
6594.29,0.09722
6571.14,0.10197
6548,0.09412
6524.85,0.10114
6501.71,0.09546
6478.56,0.10354
6455.42,0.09983
6432.27,0.09831
6409.13,0.09791
6385.98,0.10162
6362.84,0.09262
6339.7,0.10429
6316.55,0.09647
6293.41,0.09412
6270.26,0.09842
6247.12,0.10128
6223.97,0.09859
6200.83,0.10052
6177.68,0.09828
6154.54,0.09666
6131.39,0.10306
6108.25,0.10096
6085.1,0.09662
6061.96,0.09885
6038.82,0.09825
6015.67,0.09805
5992.53,0.09844
5969.38,0.09741
5946.24,0.09950
5923.09,0.09681
5899.95,0.09541
5876.8,0.09718
5853.66,0.09622
5830.51,0.09658
5807.37,0.08853
5784.22,0.08779
5761.08,0.09263
5737.94,0.09417
5714.79,0.09647
5691.65,0.09336
5668.5,0.09025
5645.36,0.09555
5622.21,0.09824
5599.07,0.09653
5575.92,0.09703
5552.78,0.09818
5529.63,0.09584
5506.49,0.09735
5483.34,0.09572
5460.2,0.09774
5437.06,0.09727
5413.91,0.09694
5390.77,0.09665
5367.62,0.09765
5344.48,0.10008
5321.33,0.09845
5298.19,0.10056
5275.04,0.09919
5251.9,0.09786
5228.75,0.09881
5205.61,0.09839
5182.46,0.09930
5159.32,0.09880
5136.18,0.10063
5113.03,0.10036
5089.89,0.09937
5066.74,0.09924
5043.6,0.10098
5020.45,0.10042
4997.31,0.10041
4974.16,0.09931
4951.02,0.10059
4927.87,0.09990
4904.73,0.10142
4881.58,0.10182
4858.44,0.10011
4835.3,0.10168
4812.15,0.10305
4789.01,0.10081
4765.86,0.10231
4742.72,0.10233
4719.57,0.10297
4696.43,0.10171
4673.28,0.10229
4650.14,0.10147
4626.99,0.10201
4603.85,0.10278
4580.7,0.10151
4557.56,0.10306
4534.42,0.10300
4511.27,0.10040
4488.13,0.09988
4464.98,0.10048
4441.84,0.09957
4418.69,0.09738
4395.55,0.09525
4372.4,0.08999
4349.26,0.08137
4326.11,0.06811
4302.97,0.08523
4279.82,0.08413
4256.68,0.07381
4233.54,0.08199
4210.39,0.08042
4187.25,0.07693
4164.1,0.07761
4140.96,0.07879
4117.81,0.07907
4094.67,0.07892
4071.52,0.08436
4048.38,0.08663
4025.23,0.08719
4002.09,0.09180
3978.94,0.09065
3955.8,0.09098
3932.66,0.09109
3909.51,0.09126
3886.37,0.09098
3863.22,0.09190
3840.08,0.09274
3816.93,0.09173
3793.79,0.09436
3770.64,0.09478
3747.5,0.09511
3724.35,0.09500
3701.21,0.09539
3678.06,0.09227
3654.92,0.09226
3631.78,0.09172
3608.63,0.08671
3585.49,0.09541
3562.34,0.09704
3539.2,0.09750
3516.05,0.09882
3492.91,0.09789
3469.76,0.09556
3446.62,0.09639
3423.47,0.09654
3400.33,0.09500
3377.18,0.09501
3354.04,0.09501
3330.9,0.09470
3307.75,0.09541
3284.61,0.09555
3261.46,0.09478
3238.32,0.09464
3215.17,0.09446
3192.03,0.09301
3168.88,0.09195
3145.74,0.08937
3122.59,0.08782
3099.45,0.08217
3076.3,0.07367
3053.16,0.06893
3030.02,0.06266
3006.87,0.05843
2983.73,0.05258
2960.58,0.04771
2937.44,0.03890
2914.29,0.09032
2891.15,0.07010
2868,0.06007
2844.86,0.08731
2821.71,0.06990
2798.57,0.06821
2775.42,0.07231
2752.28,0.07521
2729.14,0.07505
2705.99,0.07628
2682.85,0.07456
2659.7,0.07493
2636.56,0.07503
2613.41,0.07892
2590.27,0.08359
2567.12,0.09038
2543.98,0.09209
2520.83,0.09179
2497.69,0.09736
2474.55,0.09891
2451.4,0.09768
2428.26,0.09840
2405.11,0.10014
2381.97,0.09636
2358.82,0.09518
2335.68,0.09388
2312.53,0.09274
2289.39,0.09571
2266.24,0.10083
2243.1,0.09709
2219.95,0.09939
2196.81,0.10321
2173.67,0.09854
2150.52,0.09854
2127.38,0.10451
2104.23,0.09909
2081.09,0.10012
2057.94,0.10230
2034.8,0.09509
2011.65,0.09708
1988.51,0.10391
1965.36,0.09838
1942.22,0.10115
1919.07,0.10237
1895.93,0.09419
1872.79,0.10295
1849.64,0.10356
1826.5,0.09778
1803.35,0.10278
1780.21,0.10035
1757.06,0.09431
1733.92,0.09752
1710.77,0.09418
1687.63,0.09645
1664.48,0.09994
1641.34,0.09318
1618.19,0.09486
1595.05,0.09655
1571.91,0.08993
1548.76,0.09233
1525.62,0.09226
1502.47,0.08051
1479.33,0.05916
1456.18,0.06294
1433.04,0.06793
1409.89,0.08601
1386.75,0.07622
1363.6,0.07193
1340.46,0.07757
1317.31,0.07097
1294.17,0.08451
1271.03,0.08161
1247.88,0.07905
1224.74,0.10250
1201.59,0.08699
1178.45,0.07967
1155.3,0.10516
1132.16,0.08333
1109.01,0.08486
1085.87,0.10830
1062.72,0.07989
1039.58,0.09164
1016.43,0.11448
993.29,0.07663
970.145,0.09900
947,0.11802
923.856,0.06850
900.711,0.10722
877.567,0.11643
854.422,0.06345
831.277,0.11285
808.133,0.11373
784.988,0.05470
761.844,0.09652
738.699,0.08903
715.554,0.07045
692.41,0.12556
669.265,0.05858
646.12,0.09763
622.976,0.15014
599.831,0.05807