Folder: fsri_materials_database/01_Data/PEVA/FTIR/IS (part 8)

File: PEVA_0.18_IS_S_240809_R1.dpt
7497.33,0.10728
7474.19,0.09483
7451.04,0.10909
7427.9,0.09427
7404.75,0.08879
7381.6,0.11008
7358.46,0.09530
7335.31,0.10926
7312.17,0.11268
7289.02,0.09063
7265.87,0.10865
7242.73,0.11732
7219.58,0.10614
7196.44,0.10317
7173.29,0.10346
7150.15,0.10709
7127,0.09240
7103.85,0.10044
7080.71,0.10510
7057.56,0.09836
7034.42,0.10527
7011.27,0.09895
6988.12,0.10456
6964.98,0.10273
6941.83,0.09345
6918.69,0.10345
6895.54,0.10559
6872.39,0.09720
6849.25,0.09985
6826.1,0.10934
6802.96,0.09810
6779.81,0.09486
6756.67,0.09871
6733.52,0.10127
6710.37,0.10076
6687.23,0.09893
6664.08,0.10508
6640.94,0.10721
6617.79,0.10046
6594.64,0.10503
6571.5,0.09677
6548.35,0.10409
6525.21,0.10257
6502.06,0.09700
6478.92,0.10109
6455.77,0.10306
6432.62,0.10058
6409.48,0.09972
6386.33,0.10413
6363.19,0.10127
6340.04,0.10619
6316.89,0.10277
6293.75,0.10287
6270.6,0.10393
6247.46,0.10290
6224.31,0.10040
6201.16,0.10323
6178.02,0.10192
6154.87,0.09946
6131.73,0.10055
6108.58,0.09783
6085.44,0.10034
6062.29,0.09996
6039.14,0.10096
6016,0.09801
5992.85,0.10058
5969.71,0.09714
5946.56,0.09961
5923.41,0.10030
5900.27,0.09664
5877.12,0.10069
5853.98,0.09366
5830.83,0.09119
5807.68,0.08981
5784.54,0.08750
5761.39,0.09006
5738.25,0.09476
5715.1,0.09557
5691.96,0.09086
5668.81,0.09525
5645.66,0.09266
5622.52,0.09894
5599.37,0.09739
5576.23,0.09645
5553.08,0.09575
5529.93,0.09817
5506.79,0.09914
5483.64,0.09586
5460.5,0.10171
5437.35,0.09752
5414.21,0.09744
5391.06,0.09859
5367.91,0.10161
5344.77,0.10099
5321.62,0.10063
5298.48,0.09854
5275.33,0.09926
5252.18,0.10114
5229.04,0.09942
5205.89,0.09975
5182.75,0.09858
5159.6,0.10047
5136.45,0.10158
5113.31,0.10016
5090.16,0.10004
5067.02,0.10063
5043.87,0.10168
5020.73,0.10024
4997.58,0.09909
4974.43,0.09965
4951.29,0.10060
4928.14,0.09983
4905,0.10177
4881.85,0.10136
4858.7,0.10218
4835.56,0.10059
4812.41,0.10031
4789.27,0.10199
4766.12,0.10239
4742.97,0.10073
4719.83,0.10324
4696.68,0.10196
4673.54,0.10101
4650.39,0.10209
4627.25,0.10226
4604.1,0.10094
4580.95,0.10021
4557.81,0.10263
4534.66,0.10065
4511.52,0.10204
4488.37,0.10033
4465.22,0.09938
4442.08,0.09643
4418.93,0.09380
4395.79,0.08891
4372.64,0.08242
4349.49,0.07369
4326.35,0.06367
4303.2,0.07733
4280.06,0.07731
4256.91,0.06954
4233.77,0.07579
4210.62,0.07397
4187.47,0.07072
4164.33,0.07148
4141.18,0.07218
4118.04,0.07295
4094.89,0.07377
4071.74,0.07840
4048.6,0.08028
4025.45,0.08134
4002.31,0.08475
3979.16,0.08463
3956.02,0.08510
3932.87,0.08476
3909.72,0.08452
3886.58,0.08553
3863.43,0.08717
3840.29,0.08753
3817.14,0.08908
3793.99,0.09017
3770.85,0.09159
3747.7,0.09134
3724.56,0.09200
3701.41,0.08915
3678.26,0.08760
3655.12,0.08591
3631.97,0.08583
3608.83,0.08263
3585.68,0.09107
3562.54,0.09300
3539.39,0.09455
3516.24,0.09420
3493.1,0.09235
3469.95,0.08538
3446.81,0.08134
3423.66,0.08959
3400.51,0.09048
3377.37,0.09023
3354.22,0.09059
3331.08,0.09099
3307.93,0.09123
3284.78,0.09073
3261.64,0.08977
3238.49,0.08960
3215.35,0.08732
3192.2,0.08598
3169.06,0.08519
3145.91,0.08399
3122.76,0.08118
3099.62,0.07385
3076.47,0.06597
3053.33,0.06125
3030.18,0.05670
3007.03,0.05364
2983.89,0.05166
2960.74,0.04813
2937.6,0.03978
2914.45,0.08896
2891.31,0.06919
2868.16,0.05962
2845.01,0.08508
2821.87,0.06823
2798.72,0.06741
2775.58,0.06898
2752.43,0.06875
2729.28,0.06746
2706.14,0.06789
2682.99,0.06645
2659.85,0.06720
2636.7,0.06902
2613.55,0.07362
2590.41,0.07787
2567.26,0.08247
2544.12,0.08395
2520.97,0.08516
2497.83,0.08669
2474.68,0.08625
2451.53,0.09141
2428.39,0.09300
2405.24,0.09237
2382.1,0.09282
2358.95,0.09061
2335.8,0.08521
2312.66,0.08443
2289.51,0.08538
2266.37,0.08744
2243.22,0.08925
2220.07,0.09340
2196.93,0.09353
2173.78,0.09266
2150.64,0.09198
2127.49,0.09551
2104.35,0.09470
2081.2,0.09296
2058.05,0.08977
2034.91,0.08585
2011.76,0.08606
1988.62,0.09219
1965.47,0.09244
1942.32,0.09286
1919.18,0.09195
1896.03,0.08816
1872.89,0.08665
1849.74,0.08432
1826.6,0.07926
1803.45,0.07437
1780.3,0.06709
1757.16,0.06246
1734.01,0.06289
1710.87,0.05949
1687.72,0.06569
1664.57,0.07202
1641.43,0.07353
1618.28,0.07952
1595.14,0.07896
1571.99,0.07604
1548.84,0.07540
1525.7,0.07450
1502.55,0.06893
1479.41,0.05616
1456.26,0.06376
1433.12,0.06146
1409.97,0.06233
1386.82,0.05505
1363.68,0.05742
1340.53,0.05930
1317.39,0.06155
1294.24,0.06169
1271.09,0.06702
1247.95,0.06697
1224.8,0.05126
1201.66,0.05826
1178.51,0.05946
1155.36,0.06058
1132.22,0.06039
1109.07,0.06157
1085.93,0.06125
1062.78,0.06299
1039.64,0.06452
1016.49,0.06304
993.344,0.06099
970.198,0.06130
947.052,0.06178
923.906,0.07173
900.76,0.07575
877.614,0.06966
854.468,0.06444
831.323,0.06667
808.177,0.07744
785.031,0.08929
761.885,0.08593
738.739,0.05463
715.593,0.06230
692.447,0.10218
669.301,0.07984
646.156,0.05366
623.01,0.05817
599.864,0.05785

File: PEVA_0.18_IS_S_240809_R2.dpt
7497.33,0.11241
7474.19,0.10022
7451.04,0.09633
7427.9,0.09062
7404.75,0.09840
7381.6,0.09981
7358.46,0.09190
7335.31,0.11222
7312.17,0.10721
7289.02,0.09728
7265.87,0.10194
7242.73,0.09325
7219.58,0.10348
7196.44,0.08985
7173.29,0.08868
7150.15,0.10607
7127,0.10035
7103.85,0.09799
7080.71,0.09947
7057.56,0.09824
7034.42,0.09659
7011.27,0.10108
6988.12,0.10652
6964.98,0.09846
6941.83,0.10043
6918.69,0.09845
6895.54,0.09906
6872.39,0.09623
6849.25,0.10504
6826.1,0.10221
6802.96,0.10191
6779.81,0.09605
6756.67,0.10146
6733.52,0.10025
6710.37,0.09784
6687.23,0.10149
6664.08,0.10326
6640.94,0.09970
6617.79,0.10004
6594.64,0.10351
6571.5,0.10450
6548.35,0.09647
6525.21,0.10145
6502.06,0.10266
6478.92,0.09638
6455.77,0.09779
6432.62,0.09923
6409.48,0.09841
6386.33,0.10276
6363.19,0.10274
6340.04,0.09471
6316.89,0.10384
6293.75,0.10256
6270.6,0.10307
6247.46,0.10257
6224.31,0.09941
6201.16,0.10226
6178.02,0.09949
6154.87,0.09909
6131.73,0.10021
6108.58,0.10217
6085.44,0.09892
6062.29,0.09801
6039.14,0.09887
6016,0.09859
5992.85,0.10062
5969.71,0.09680
5946.56,0.10044
5923.41,0.09999
5900.27,0.09997
5877.12,0.09716
5853.98,0.09316
5830.83,0.09041
5807.68,0.08778
5784.54,0.08475
5761.39,0.08639
5738.25,0.09141
5715.1,0.09291
5691.96,0.09528
5668.81,0.08939
5645.66,0.09254
5622.52,0.09631
5599.37,0.09431
5576.23,0.09740
5553.08,0.09620
5529.93,0.09607
5506.79,0.09587
5483.64,0.09543
5460.5,0.09698
5437.35,0.09671
5414.21,0.09937
5391.06,0.09847
5367.91,0.09668
5344.77,0.09917
5321.62,0.09871
5298.48,0.09846
5275.33,0.09671
5252.18,0.09913
5229.04,0.09884
5205.89,0.10018
5182.75,0.09988
5159.6,0.09920
5136.45,0.09958
5113.31,0.09904
5090.16,0.09940
5067.02,0.09889
5043.87,0.09834
5020.73,0.09860
4997.58,0.09878
4974.43,0.09916
4951.29,0.09873
4928.14,0.09843
4905,0.09938
4881.85,0.10036
4858.7,0.10104
4835.56,0.10067
4812.41,0.10156
4789.27,0.10072
4766.12,0.10104
4742.97,0.10059
4719.83,0.10107
4696.68,0.10124
4673.54,0.09972
4650.39,0.09985
4627.25,0.09917
4604.1,0.10041
4580.95,0.10044
4557.81,0.10090
4534.66,0.10106
4511.52,0.10028
4488.37,0.09976
4465.22,0.09704
4442.08,0.09410
4418.93,0.09152
4395.79,0.08690
4372.64,0.08124
4349.49,0.07162
4326.35,0.06355
4303.2,0.07667
4280.06,0.07664
4256.91,0.06748
4233.77,0.07380
4210.62,0.07233
4187.47,0.06918
4164.33,0.07047
4141.18,0.07113
4118.04,0.07163
4094.89,0.07288
4071.74,0.07722
4048.6,0.07901
4025.45,0.08024
4002.31,0.08430
3979.16,0.08260
3956.02,0.08447
3932.87,0.08338
3909.72,0.08381
3886.58,0.08518
3863.43,0.08610
3840.29,0.08706
3817.14,0.08718
3793.99,0.08913
3770.85,0.09055
3747.7,0.09050
3724.56,0.08924
3701.41,0.08731
3678.26,0.08677
3655.12,0.08436
3631.97,0.08462
3608.83,0.08110
3585.68,0.08955
3562.54,0.09165
3539.39,0.09168
3516.24,0.09210
3493.1,0.09160
3469.95,0.08347
3446.81,0.08046
3423.66,0.08863
3400.51,0.08986
3377.37,0.08873
3354.22,0.08985
3331.08,0.08978
3307.93,0.08914
3284.78,0.08886
3261.64,0.08842
3238.49,0.08748
3215.35,0.08717
3192.2,0.08581
3169.06,0.08474
3145.91,0.08270
3122.76,0.07942
3099.62,0.07235
3076.47,0.06482
3053.33,0.06036
3030.18,0.05605
3007.03,0.05452
2983.89,0.05151
2960.74,0.04741
2937.6,0.03960
2914.45,0.08699
2891.31,0.06819
2868.16,0.05959
2845.01,0.08348
2821.87,0.06751
2798.72,0.06791
2775.58,0.06791
2752.43,0.06686
2729.28,0.06626
2706.14,0.06681
2682.99,0.06654
2659.85,0.06746
2636.7,0.06893
2613.55,0.07266
2590.41,0.07651
2567.26,0.08060
2544.12,0.08236
2520.97,0.08328
2497.83,0.08581
2474.68,0.08577
2451.53,0.09126
2428.39,0.09222
2405.24,0.09141
2382.1,0.09020
2358.95,0.08687
2335.8,0.08223
2312.66,0.08244
2289.51,0.08449
2266.37,0.08717
2243.22,0.08908
2220.07,0.09268
2196.93,0.09345
2173.78,0.09209
2150.64,0.09143
2127.49,0.09439
2104.35,0.09296
2081.2,0.09058
2058.05,0.08766
2034.91,0.08475
2011.76,0.08573
1988.62,0.09186
1965.47,0.09342
1942.32,0.09302
1919.18,0.09030
1896.03,0.08489
1872.89,0.08389
1849.74,0.08349
1826.6,0.07954
1803.45,0.07346
1780.3,0.06767
1757.16,0.06389
1734.01,0.05880
1710.87,0.05884
1687.72,0.06311
1664.57,0.07102
1641.43,0.07187
1618.28,0.07732
1595.14,0.07767
1571.99,0.07628
1548.84,0.07555
1525.7,0.07320
1502.55,0.06871
1479.41,0.05509
1456.26,0.06280
1433.12,0.05983
1409.97,0.06113
1386.82,0.05415
1363.68,0.05770
1340.53,0.05980
1317.39,0.06143
1294.24,0.06271
1271.09,0.06663
1247.95,0.06242
1224.8,0.05188
1201.66,0.05780
1178.51,0.06030
1155.36,0.05907
1132.22,0.05907
1109.07,0.06136
1085.93,0.06222
1062.78,0.06301
1039.64,0.06369
1016.49,0.06260
993.344,0.06246
970.198,0.06042
947.052,0.05891
923.906,0.06569
900.76,0.07374
877.614,0.07513
854.468,0.07336
831.323,0.07457
808.177,0.07189
785.031,0.07780
761.885,0.07954
738.739,0.05867
715.593,0.06220
692.447,0.09538
669.301,0.09239
646.156,0.06579
623.01,0.06187
599.864,0.05913

File: PEVA_0.18_IS_S_240809_R3.dpt
7497.33,0.09327
7474.19,0.11077
7451.04,0.10106
7427.9,0.10338
7404.75,0.09561
7381.6,0.10422
7358.46,0.09555
7335.31,0.10387
7312.17,0.09581
7289.02,0.09690
7265.87,0.09900
7242.73,0.10006
7219.58,0.10454
7196.44,0.10542
7173.29,0.09496
7150.15,0.10332
7127,0.09267
7103.85,0.09402
7080.71,0.10433
7057.56,0.09126
7034.42,0.10297
7011.27,0.09424
6988.12,0.10312
6964.98,0.10115
6941.83,0.10354
6918.69,0.09547
6895.54,0.08993
6872.39,0.09669
6849.25,0.09819
6826.1,0.09799
6802.96,0.09577
6779.81,0.09785
6756.67,0.09806
6733.52,0.09491
6710.37,0.09579
6687.23,0.10340
6664.08,0.10365
6640.94,0.09689
6617.79,0.09568
6594.64,0.09344
6571.5,0.09788
6548.35,0.09212
6525.21,0.10033
6502.06,0.09512
6478.92,0.09319
6455.77,0.09791
6432.62,0.09722
6409.48,0.10118
6386.33,0.09543
6363.19,0.10086
6340.04,0.10456
6316.89,0.09797
6293.75,0.10205
6270.6,0.09896
6247.46,0.09724
6224.31,0.09855
6201.16,0.10131
6178.02,0.10063
6154.87,0.10129
6131.73,0.09800
6108.58,0.09743
6085.44,0.10039
6062.29,0.10065
6039.14,0.09699
6016,0.09883
5992.85,0.09525
5969.71,0.09542
5946.56,0.09661
5923.41,0.09556
5900.27,0.09446
5877.12,0.09158
5853.98,0.09222
5830.83,0.08933
5807.68,0.08522
5784.54,0.08585
5761.39,0.08835
5738.25,0.09202
5715.1,0.09226
5691.96,0.09292
5668.81,0.09152
5645.66,0.09206
5622.52,0.09234
5599.37,0.09524
5576.23,0.09610
5553.08,0.09281
5529.93,0.09540
5506.79,0.09327
5483.64,0.09603
5460.5,0.09473
5437.35,0.09762
5414.21,0.09818
5391.06,0.09937
5367.91,0.09739
5344.77,0.09793
5321.62,0.09628
5298.48,0.09537
5275.33,0.09813
5252.18,0.09449
5229.04,0.09727
5205.89,0.09623
5182.75,0.09766
5159.6,0.10026
5136.45,0.09851
5113.31,0.09802
5090.16,0.09776
5067.02,0.09887
5043.87,0.09909
5020.73,0.09793
4997.58,0.09714
4974.43,0.09719
4951.29,0.09945
4928.14,0.09820
4905,0.09963
4881.85,0.09876
4858.7,0.09885
4835.56,0.09911
4812.41,0.09848
4789.27,0.09948
4766.12,0.09990
4742.97,0.10126
4719.83,0.10039
4696.68,0.10044
4673.54,0.09719
4650.39,0.09855
4627.25,0.09830
4604.1,0.09923
4580.95,0.09897
4557.81,0.09830
4534.66,0.09940
4511.52,0.09929
4488.37,0.09837
4465.22,0.09694
4442.08,0.09331
4418.93,0.09114
4395.79,0.08569
4372.64,0.07985
4349.49,0.07086
4326.35,0.06308
4303.2,0.07677
4280.06,0.07569
4256.91,0.06700
4233.77,0.07350
4210.62,0.07248
4187.47,0.06935
4164.33,0.06997
4141.18,0.07049
4118.04,0.07114
4094.89,0.07219
4071.74,0.07682
4048.6,0.07877
4025.45,0.08000
4002.31,0.08296
3979.16,0.08229
3956.02,0.08350
3932.87,0.08268
3909.72,0.08240
3886.58,0.08412
3863.43,0.08581
3840.29,0.08658
3817.14,0.08726
3793.99,0.08861
3770.85,0.08926
3747.7,0.08875
3724.56,0.08842
3701.41,0.08679
3678.26,0.08511
3655.12,0.08376
3631.97,0.08486
3608.83,0.08101
3585.68,0.08905
3562.54,0.09124
3539.39,0.09213
3516.24,0.09125
3493.1,0.09011
3469.95,0.08249
3446.81,0.08007
3423.66,0.08799
3400.51,0.08855
3377.37,0.08816
3354.22,0.08843
3331.08,0.08920
3307.93,0.08921
3284.78,0.08820
3261.64,0.08753
3238.49,0.08711
3215.35,0.08659
3192.2,0.08499
3169.06,0.08381
3145.91,0.08237
3122.76,0.07853
3099.62,0.07192
3076.47,0.06398
3053.33,0.05992
3030.18,0.05547
3007.03,0.05428
2983.89,0.05165
2960.74,0.04691
2937.6,0.03943
2914.45,0.08676
2891.31,0.06743
2868.16,0.05872
2845.01,0.08299
2821.87,0.06694
2798.72,0.06664
2775.58,0.06744
2752.43,0.06681
2729.28,0.06581
2706.14,0.06686
2682.99,0.06603
2659.85,0.06722
2636.7,0.06830
2613.55,0.07236
2590.41,0.07637
2567.26,0.08048
2544.12,0.08182
2520.97,0.08276
2497.83,0.08502
2474.68,0.08509
2451.53,0.09019
2428.39,0.09193
2405.24,0.09056
2382.1,0.09035
2358.95,0.08710
2335.8,0.08218
2312.66,0.08241
2289.51,0.08398
2266.37,0.08594
2243.22,0.08791
2220.07,0.09249
2196.93,0.09288
2173.78,0.09152
2150.64,0.09068
2127.49,0.09309
2104.35,0.09211
2081.2,0.09007
2058.05,0.08732
2034.91,0.08462
2011.76,0.08567
1988.62,0.09138
1965.47,0.09181
1942.32,0.09147
1919.18,0.08971
1896.03,0.08499
1872.89,0.08421
1849.74,0.08305
1826.6,0.07779
1803.45,0.07261
1780.3,0.06663
1757.16,0.06297
1734.01,0.05907
1710.87,0.05786
1687.72,0.06361
1664.57,0.07028
1641.43,0.07085
1618.28,0.07714
1595.14,0.07747
1571.99,0.07570
1548.84,0.07464
1525.7,0.07284
1502.55,0.06831
1479.41,0.05456
1456.26,0.06260
1433.12,0.05987
1409.97,0.06065
1386.82,0.05312
1363.68,0.05646
1340.53,0.05868
1317.39,0.06067
1294.24,0.06217
1271.09,0.06565
1247.95,0.06301
1224.8,0.05106
1201.66,0.05775
1178.51,0.05958
1155.36,0.05852
1132.22,0.05865
1109.07,0.06145
1085.93,0.06163
1062.78,0.06249
1039.64,0.06301
1016.49,0.06171
993.344,0.06139
970.198,0.05914
947.052,0.05908
923.906,0.06575
900.76,0.07178
877.614,0.07205
854.468,0.07033
831.323,0.07434
808.177,0.07580
785.031,0.08052
761.885,0.07699
738.739,0.05768
715.593,0.06179
692.447,0.08979
669.301,0.07906
646.156,0.06545
623.01,0.06561
599.864,0.06233

File: PEVA_0.18_IS_S_240809_R4.dpt
7497.33,0.10296
7474.19,0.09759
7451.04,0.10210
7427.9,0.10101
7404.75,0.10620
7381.6,0.11615
7358.46,0.10201
7335.31,0.10303
7312.17,0.10259
7289.02,0.09647
7265.87,0.08887
7242.73,0.09333
7219.58,0.10680
7196.44,0.09878
7173.29,0.09885
7150.15,0.09667
7127,0.10102
7103.85,0.09961
7080.71,0.10033
7057.56,0.09332
7034.42,0.09668
7011.27,0.10373
6988.12,0.10262
6964.98,0.09364
6941.83,0.09301
6918.69,0.09697
6895.54,0.10081
6872.39,0.09878
6849.25,0.09715
6826.1,0.09889
6802.96,0.09780
6779.81,0.10371
6756.67,0.09362
6733.52,0.09915
6710.37,0.09995
6687.23,0.10444
6664.08,0.09862
6640.94,0.09953
6617.79,0.09987
6594.64,0.10057
6571.5,0.10098
6548.35,0.10018
6525.21,0.09884
6502.06,0.09486
6478.92,0.09787
6455.77,0.09882
6432.62,0.10151
6409.48,0.10112
6386.33,0.10378
6363.19,0.10108
6340.04,0.09995
6316.89,0.10061
6293.75,0.10206
6270.6,0.10037
6247.46,0.09873
6224.31,0.10144
6201.16,0.10125
6178.02,0.09990
6154.87,0.09917
6131.73,0.09799
6108.58,0.09928
6085.44,0.10187
6062.29,0.09991
6039.14,0.10041
6016,0.09729
5992.85,0.09832
5969.71,0.10099
5946.56,0.10089
5923.41,0.09679
5900.27,0.09593
5877.12,0.09421
5853.98,0.09522
5830.83,0.08980
5807.68,0.08880
5784.54,0.08143
5761.39,0.08947
5738.25,0.09161
5715.1,0.09561
5691.96,0.09188
5668.81,0.08969
5645.66,0.09077
5622.52,0.09521
5599.37,0.09788
5576.23,0.09573
5553.08,0.09621
5529.93,0.09622
5506.79,0.09413
5483.64,0.09569
5460.5,0.09702
5437.35,0.09642
5414.21,0.09664
5391.06,0.09998
5367.91,0.09838
5344.77,0.09743
5321.62,0.09830
5298.48,0.09861
5275.33,0.09830
5252.18,0.09738
5229.04,0.09807
5205.89,0.09933
5182.75,0.10025
5159.6,0.09880
5136.45,0.10000
5113.31,0.09918
5090.16,0.09865
5067.02,0.09862
5043.87,0.09810
5020.73,0.09950
4997.58,0.09949
4974.43,0.09893
4951.29,0.10032
4928.14,0.10019
4905,0.09983
4881.85,0.10032
4858.7,0.10044
4835.56,0.10005
4812.41,0.09998
4789.27,0.10048
4766.12,0.10254
4742.97,0.10126
4719.83,0.10190
4696.68,0.10136
4673.54,0.09959
4650.39,0.10054
4627.25,0.10097
4604.1,0.09989
4580.95,0.09976
4557.81,0.10066
4534.66,0.10010
4511.52,0.09927
4488.37,0.09937
4465.22,0.09842
4442.08,0.09468
4418.93,0.09193
4395.79,0.08729
4372.64,0.08075
4349.49,0.07229
4326.35,0.06232
4303.2,0.07754
4280.06,0.07697
4256.91,0.06720
4233.77,0.07499
4210.62,0.07277
4187.47,0.06925
4164.33,0.07022
4141.18,0.07109
4118.04,0.07277
4094.89,0.07297
4071.74,0.07778
4048.6,0.07952
4025.45,0.08001
4002.31,0.08357
3979.16,0.08356
3956.02,0.08478
3932.87,0.08411
3909.72,0.08337
3886.58,0.08544
3863.43,0.08674
3840.29,0.08748
3817.14,0.08744
3793.99,0.08926
3770.85,0.09052
3747.7,0.08929
3724.56,0.09017
3701.41,0.08781
3678.26,0.08622
3655.12,0.08447
3631.97,0.08452
3608.83,0.08226
3585.68,0.08967
3562.54,0.09105
3539.39,0.09210
3516.24,0.09230
3493.1,0.09125
3469.95,0.08292
3446.81,0.08065
3423.66,0.08853
3400.51,0.08972
3377.37,0.08874
3354.22,0.08916
3331.08,0.09042
3307.93,0.09040
3284.78,0.08893
3261.64,0.08879
3238.49,0.08779
3215.35,0.08611
3192.2,0.08563
3169.06,0.08423
3145.91,0.08350
3122.76,0.07884
3099.62,0.07183
3076.47,0.06490
3053.33,0.06053
3030.18,0.05686
3007.03,0.05446
2983.89,0.05146
2960.74,0.04821
2937.6,0.03904
2914.45,0.08726
2891.31,0.06848
2868.16,0.05960
2845.01,0.08358
2821.87,0.06797
2798.72,0.06725
2775.58,0.06831
2752.43,0.06795
2729.28,0.06643
2706.14,0.06810
2682.99,0.06668
2659.85,0.06696
2636.7,0.06871
2613.55,0.07294
2590.41,0.07663
2567.26,0.08070
2544.12,0.08306
2520.97,0.08360
2497.83,0.08596
2474.68,0.08565
2451.53,0.09088
2428.39,0.09167
2405.24,0.09083
2382.1,0.09090
2358.95,0.08883
2335.8,0.08370
2312.66,0.08378
2289.51,0.08505
2266.37,0.08643
2243.22,0.08856
2220.07,0.09262
2196.93,0.09348
2173.78,0.09291
2150.64,0.09210
2127.49,0.09402
2104.35,0.09272
2081.2,0.09037
2058.05,0.08780
2034.91,0.08467
2011.76,0.08637
1988.62,0.09274
1965.47,0.09284
1942.32,0.09208
1919.18,0.08966
1896.03,0.08557
1872.89,0.08519
1849.74,0.08448
1826.6,0.07921
1803.45,0.07292
1780.3,0.06803
1757.16,0.06293
1734.01,0.05980
1710.87,0.05859
1687.72,0.06395
1664.57,0.07248
1641.43,0.07079
1618.28,0.07701
1595.14,0.07868
1571.99,0.07800
1548.84,0.07445
1525.7,0.07232
1502.55,0.07031
1479.41,0.05450
1456.26,0.06344
1433.12,0.06031
1409.97,0.06049
1386.82,0.05375
1363.68,0.05654
1340.53,0.05959
1317.39,0.06025
1294.24,0.06233
1271.09,0.06674
1247.95,0.06325
1224.8,0.05111
1201.66,0.05722
1178.51,0.06023
1155.36,0.05959
1132.22,0.05802
1109.07,0.06045
1085.93,0.06180
1062.78,0.06273
1039.64,0.06357
1016.49,0.06185
993.344,0.06175
970.198,0.06113
947.052,0.06035
923.906,0.06630
900.76,0.06867
877.614,0.06755
854.468,0.06989
831.323,0.07687
808.177,0.07991
785.031,0.08439
761.885,0.07377
738.739,0.05561
715.593,0.06217
692.447,0.08808
669.301,0.07242
646.156,0.06305
623.01,0.06649
599.864,0.06837

File: PEVA_0.18_IS_S_240809_R5.dpt
7497.33,0.10090
7474.19,0.10180
7451.04,0.10221
7427.9,0.10314
7404.75,0.10325
7381.6,0.10647
7358.46,0.10336
7335.31,0.10840
7312.17,0.10379
7289.02,0.10635
7265.87,0.10357
7242.73,0.10421
7219.58,0.09362
7196.44,0.09587
7173.29,0.09679
7150.15,0.10245
7127,0.10540
7103.85,0.09544
7080.71,0.10293
7057.56,0.09673
7034.42,0.09767
7011.27,0.11052
6988.12,0.09736
6964.98,0.10031
6941.83,0.10310
6918.69,0.10677
6895.54,0.10515
6872.39,0.10260
6849.25,0.10899
6826.1,0.10511
6802.96,0.10682
6779.81,0.10621
6756.67,0.10741
6733.52,0.10264
6710.37,0.10770
6687.23,0.10488
6664.08,0.10064
6640.94,0.10374
6617.79,0.10029
6594.64,0.09914
6571.5,0.10555
6548.35,0.10348
6525.21,0.10247
6502.06,0.10716
6478.92,0.10338
6455.77,0.10160
6432.62,0.10242
6409.48,0.10360
6386.33,0.10228
6363.19,0.09890
6340.04,0.10644
6316.89,0.09618
6293.75,0.10372
6270.6,0.10183
6247.46,0.10885
6224.31,0.10315
6201.16,0.10427
6178.02,0.10849
6154.87,0.10474
6131.73,0.10456
6108.58,0.10413
6085.44,0.10258
6062.29,0.10152
6039.14,0.09936
6016,0.10244
5992.85,0.10259
5969.71,0.10042
5946.56,0.09898
5923.41,0.10116
5900.27,0.09919
5877.12,0.09941
5853.98,0.10026
5830.83,0.09325
5807.68,0.08987
5784.54,0.08658
5761.39,0.08968
5738.25,0.09403
5715.1,0.09679
5691.96,0.09673
5668.81,0.09353
5645.66,0.09584
5622.52,0.09806
5599.37,0.10116
5576.23,0.10172
5553.08,0.09894
5529.93,0.09840
5506.79,0.09834
5483.64,0.10073
5460.5,0.10110
5437.35,0.09895
5414.21,0.10132
5391.06,0.10072
5367.91,0.10136
5344.77,0.10054
5321.62,0.10169
5298.48,0.10036
5275.33,0.10080
5252.18,0.10190
5229.04,0.10192
5205.89,0.10231
5182.75,0.10133
5159.6,0.10094
5136.45,0.10184
5113.31,0.10169
5090.16,0.10313
5067.02,0.10374
5043.87,0.10221
5020.73,0.10275
4997.58,0.10175
4974.43,0.10268
4951.29,0.10191
4928.14,0.10180
4905,0.10327
4881.85,0.10224
4858.7,0.10452
4835.56,0.10293
4812.41,0.10308
4789.27,0.10347
4766.12,0.10378
4742.97,0.10485
4719.83,0.10289
4696.68,0.10203
4673.54,0.10310
4650.39,0.10279
4627.25,0.10213
4604.1,0.10280
4580.95,0.10284
4557.81,0.10369
4534.66,0.10377
4511.52,0.10341
4488.37,0.10200
4465.22,0.10017
4442.08,0.09705
4418.93,0.09449
4395.79,0.09044
4372.64,0.08393
4349.49,0.07492
4326.35,0.06532
4303.2,0.07979
4280.06,0.07840
4256.91,0.06993
4233.77,0.07632
4210.62,0.07413
4187.47,0.07237
4164.33,0.07294
4141.18,0.07341
4118.04,0.07409
4094.89,0.07533
4071.74,0.08042
4048.6,0.08176
4025.45,0.08288
4002.31,0.08619
3979.16,0.08571
3956.02,0.08671
3932.87,0.08658
3909.72,0.08556
3886.58,0.08693
3863.43,0.08897
3840.29,0.08944
3817.14,0.09054
3793.99,0.09255
3770.85,0.09314
3747.7,0.09310
3724.56,0.09288
3701.41,0.09032
3678.26,0.08799
3655.12,0.08582
3631.97,0.08809
3608.83,0.08412
3585.68,0.09350
3562.54,0.09564
3539.39,0.09601
3516.24,0.09573
3493.1,0.09335
3469.95,0.08602
3446.81,0.08358
3423.66,0.09116
3400.51,0.09302
3377.37,0.09230
3354.22,0.09271
3331.08,0.09241
3307.93,0.09264
3284.78,0.09145
3261.64,0.09094
3238.49,0.09124
3215.35,0.09021
3192.2,0.08902
3169.06,0.08724
3145.91,0.08564
3122.76,0.08194
3099.62,0.07437
3076.47,0.06681
3053.33,0.06216
3030.18,0.05834
3007.03,0.05598
2983.89,0.05362
2960.74,0.04914
2937.6,0.04102
2914.45,0.09083
2891.31,0.07076
2868.16,0.06131
2845.01,0.08662
2821.87,0.06928
2798.72,0.06983
2775.58,0.07048
2752.43,0.06973
2729.28,0.06861
2706.14,0.06943
2682.99,0.06859
2659.85,0.07050
2636.7,0.07065
2613.55,0.07464
2590.41,0.07903
2567.26,0.08287
2544.12,0.08478
2520.97,0.08630
2497.83,0.08832
2474.68,0.08881
2451.53,0.09421
2428.39,0.09549
2405.24,0.09449
2382.1,0.09416
2358.95,0.09067
2335.8,0.08538
2312.66,0.08582
2289.51,0.08768
2266.37,0.08980
2243.22,0.09162
2220.07,0.09578
2196.93,0.09614
2173.78,0.09522
2150.64,0.09475
2127.49,0.09724
2104.35,0.09598
2081.2,0.09366
2058.05,0.09029
2034.91,0.08713
2011.76,0.08913
1988.62,0.09637
1965.47,0.09655
1942.32,0.09510
1919.18,0.09269
1896.03,0.08728
1872.89,0.08723
1849.74,0.08718
1826.6,0.08298
1803.45,0.07490
1780.3,0.07008
1757.16,0.06601
1734.01,0.06112
1710.87,0.06081
1687.72,0.06536
1664.57,0.07593
1641.43,0.07373
1618.28,0.07805
1595.14,0.08081
1571.99,0.08195
1548.84,0.07915
1525.7,0.07476
1502.55,0.07256
1479.41,0.05675
1456.26,0.06565
1433.12,0.06240
1409.97,0.06193
1386.82,0.05549
1363.68,0.05916
1340.53,0.06137
1317.39,0.06334
1294.24,0.06430
1271.09,0.06881
1247.95,0.06492
1224.8,0.05326
1201.66,0.06009
1178.51,0.06190
1155.36,0.06178
1132.22,0.06095
1109.07,0.06314
1085.93,0.06294
1062.78,0.06430
1039.64,0.06567
1016.49,0.06383
993.344,0.06328
970.198,0.06285
947.052,0.06297
923.906,0.07149
900.76,0.07691
877.614,0.07335
854.468,0.07045
831.323,0.07224
808.177,0.07679
785.031,0.08747
761.885,0.08649
738.739,0.05762
715.593,0.06434
692.447,0.10427
669.301,0.08937
646.156,0.05999
623.01,0.06158
599.864,0.05774