Folder: fsri_materials_database/01_Data/PEVA/FTIR/IS (part 21)

File: PEVA_0.26_IS_Trans_S_240819_R9.dpt
7496.91,0.94615
7473.76,0.91964
7450.62,0.93448
7427.47,0.92395
7404.33,0.93727
7381.18,0.92241
7358.04,0.92060
7334.89,0.92597
7311.75,0.92433
7288.61,0.92802
7265.46,0.91980
7242.32,0.90611
7219.17,0.91240
7196.03,0.90275
7172.88,0.90959
7149.74,0.91127
7126.59,0.92298
7103.45,0.90858
7080.3,0.90627
7057.16,0.91399
7034.02,0.92497
7010.87,0.91370
6987.73,0.91756
6964.58,0.92499
6941.44,0.92093
6918.29,0.92404
6895.15,0.92736
6872,0.92375
6848.86,0.92411
6825.71,0.92105
6802.57,0.92167
6779.43,0.93232
6756.28,0.92592
6733.14,0.92907
6709.99,0.92633
6686.85,0.92951
6663.7,0.92892
6640.56,0.93511
6617.41,0.93447
6594.27,0.92966
6571.12,0.93943
6547.98,0.94064
6524.84,0.93201
6501.69,0.93391
6478.55,0.92810
6455.4,0.93518
6432.26,0.94166
6409.11,0.93258
6385.97,0.93185
6362.82,0.94333
6339.68,0.93231
6316.53,0.93796
6293.39,0.93666
6270.24,0.93507
6247.1,0.93594
6223.96,0.93113
6200.81,0.93408
6177.67,0.92969
6154.52,0.93114
6131.38,0.92907
6108.23,0.92718
6085.09,0.92195
6061.94,0.90733
6038.8,0.89721
6015.65,0.88311
5992.51,0.89780
5969.37,0.90490
5946.22,0.89730
5923.08,0.87443
5899.93,0.85017
5876.79,0.81517
5853.64,0.76970
5830.5,0.72519
5807.35,0.75933
5784.21,0.80493
5761.06,0.82327
5737.92,0.81528
5714.78,0.82016
5691.63,0.82378
5668.49,0.83933
5645.34,0.85028
5622.2,0.85956
5599.05,0.86823
5575.91,0.87412
5552.76,0.87734
5529.62,0.87872
5506.47,0.87559
5483.33,0.87620
5460.19,0.87024
5437.04,0.87801
5413.9,0.87178
5390.75,0.88924
5367.61,0.89631
5344.46,0.88034
5321.32,0.90183
5298.17,0.90122
5275.03,0.90089
5251.88,0.89376
5228.74,0.89646
5205.6,0.89141
5182.45,0.90253
5159.31,0.90204
5136.16,0.90235
5113.02,0.90261
5089.87,0.90607
5066.73,0.90756
5043.58,0.90847
5020.44,0.90943
4997.29,0.90961
4974.15,0.91094
4951.01,0.91187
4927.86,0.91041
4904.72,0.91185
4881.57,0.91096
4858.43,0.91080
4835.28,0.91078
4812.14,0.90956
4788.99,0.90736
4765.85,0.90735
4742.7,0.90729
4719.56,0.89453
4696.42,0.87997
4673.27,0.87646
4650.13,0.88286
4626.98,0.87222
4603.84,0.89268
4580.69,0.88787
4557.55,0.89483
4534.4,0.89223
4511.26,0.88655
4488.11,0.86424
4464.97,0.84958
4441.83,0.79897
4418.68,0.70068
4395.54,0.62092
4372.39,0.54241
4349.25,0.41334
4326.1,0.37517
4302.96,0.47964
4279.81,0.47279
4256.67,0.49079
4233.52,0.48294
4210.38,0.46884
4187.24,0.50840
4164.09,0.50086
4140.95,0.56294
4117.8,0.58797
4094.66,0.54965
4071.51,0.54267
4048.37,0.62057
4025.22,0.63263
4002.08,0.65681
3978.93,0.69109
3955.79,0.70549
3932.65,0.69859
3909.5,0.70979
3886.36,0.70515
3863.21,0.69738
3840.07,0.68980
3816.92,0.71104
3793.78,0.74972
3770.63,0.74908
3747.49,0.71454
3724.34,0.73572
3701.2,0.73308
3678.06,0.64922
3654.91,0.68319
3631.77,0.66699
3608.62,0.63651
3585.48,0.61160
3562.33,0.57401
3539.19,0.55299
3516.04,0.53719
3492.9,0.49061
3469.75,0.43007
3446.61,0.36772
3423.47,0.29058
3400.32,0.38359
3377.18,0.46762
3354.03,0.50226
3330.89,0.48743
3307.74,0.34845
3284.6,0.45221
3261.45,0.55526
3238.31,0.56744
3215.16,0.55171
3192.02,0.53915
3168.87,0.54385
3145.73,0.53275
3122.59,0.49073
3099.44,0.41608
3076.3,0.33418
3053.15,0.27074
3030.01,0.24053
3006.86,0.08342
2983.72,0.00056
2960.57,0.00042
2937.43,0.00042
2914.28,0.00056
2891.14,0.00072
2868,0.00026
2844.85,0.00103
2821.71,0.06087
2798.56,0.21620
2775.42,0.34493
2752.27,0.36268
2729.13,0.33854
2705.98,0.44370
2682.84,0.46183
2659.69,0.48330
2636.55,0.50176
2613.41,0.48722
2590.26,0.48769
2567.12,0.49658
2543.97,0.51771
2520.83,0.54511
2497.68,0.59213
2474.54,0.61128
2451.39,0.61849
2428.25,0.58914
2405.1,0.54676
2381.96,0.48110
2358.82,0.34179
2335.67,0.43601
2312.53,0.55126
2289.38,0.60952
2266.24,0.61286
2243.09,0.62448
2219.95,0.63370
2196.8,0.67099
2173.66,0.69806
2150.51,0.69027
2127.37,0.68300
2104.23,0.67454
2081.08,0.66007
2057.94,0.66313
2034.79,0.68208
2011.65,0.70036
1988.5,0.66541
1965.36,0.60908
1942.21,0.51732
1919.07,0.62956
1895.92,0.64856
1872.78,0.65526
1849.64,0.59594
1826.49,0.41433
1803.35,0.42584
1780.2,0.29810
1757.06,0.08555
1733.91,0.00020
1710.77,0.00041
1687.62,0.04822
1664.48,0.18133
1641.33,0.19565
1618.19,0.29646
1595.05,0.34796
1571.9,0.16218
1548.76,0.26297
1525.61,0.24359
1502.47,0.07584
1479.32,0.03832
1456.18,0.00068
1433.03,0.00018
1409.89,0.00006
1386.74,-0.00003
1363.6,0.00152
1340.46,0.00042
1317.31,0.00050
1294.17,0.00020
1271.02,0.00013
1247.88,0.00045
1224.73,0.00068
1201.59,0.00184
1178.44,0.01187
1155.3,0.00576
1132.15,0.00033
1109.01,0.00055
1085.87,0.00041
1062.72,0.01350
1039.58,0.02297
1016.43,0.00107
993.287,0.00197
970.142,0.00034
946.998,0.00004
923.853,0.00279
900.709,0.02579
877.564,0.00466
854.42,0.03964
831.275,0.02853
808.131,0.16147
784.986,0.10242
761.842,0.10251
738.697,0.00513
715.552,0.02191
692.408,0.00115
669.263,0.01088
646.119,0.00176
622.974,0.00231
599.83,0.00403

File: PEVA_0.26_IS_Trans_S_240819_R10.dpt
7496.91,0.93964
7473.76,0.92970
7450.62,0.93957
7427.47,0.93546
7404.33,0.93778
7381.18,0.92965
7358.04,0.91673
7334.89,0.92614
7311.75,0.92101
7288.61,0.91655
7265.46,0.92611
7242.32,0.90232
7219.17,0.91396
7196.03,0.90359
7172.88,0.92090
7149.74,0.90543
7126.59,0.92191
7103.45,0.91701
7080.3,0.91375
7057.16,0.91244
7034.02,0.92187
7010.87,0.91093
6987.73,0.91820
6964.58,0.92345
6941.44,0.91722
6918.29,0.92375
6895.15,0.92194
6872,0.92243
6848.86,0.92397
6825.71,0.91953
6802.57,0.93205
6779.43,0.92887
6756.28,0.93102
6733.14,0.92860
6709.99,0.93196
6686.85,0.93539
6663.7,0.93162
6640.56,0.93520
6617.41,0.93805
6594.27,0.93247
6571.12,0.93115
6547.98,0.93460
6524.84,0.93465
6501.69,0.93624
6478.55,0.94138
6455.4,0.93775
6432.26,0.93812
6409.11,0.93505
6385.97,0.93370
6362.82,0.93349
6339.68,0.93666
6316.53,0.93506
6293.39,0.93654
6270.24,0.93314
6247.1,0.93358
6223.96,0.93726
6200.81,0.93332
6177.67,0.93414
6154.52,0.92828
6131.38,0.92615
6108.23,0.92279
6085.09,0.91824
6061.94,0.90605
6038.8,0.89493
6015.65,0.88319
5992.51,0.89928
5969.37,0.90356
5946.22,0.89719
5923.08,0.87397
5899.93,0.84781
5876.79,0.81309
5853.64,0.77504
5830.5,0.72743
5807.35,0.76474
5784.21,0.80443
5761.06,0.82412
5737.92,0.81831
5714.78,0.82121
5691.63,0.82138
5668.49,0.83946
5645.34,0.85047
5622.2,0.86113
5599.05,0.86744
5575.91,0.87237
5552.76,0.87401
5529.62,0.88023
5506.47,0.87560
5483.33,0.88035
5460.19,0.87157
5437.04,0.88170
5413.9,0.87272
5390.75,0.88948
5367.61,0.89490
5344.46,0.88052
5321.32,0.89916
5298.17,0.89935
5275.03,0.90260
5251.88,0.89327
5228.74,0.89674
5205.6,0.88856
5182.45,0.90021
5159.31,0.90195
5136.16,0.90428
5113.02,0.90323
5089.87,0.90464
5066.73,0.90636
5043.58,0.90902
5020.44,0.91087
4997.29,0.90940
4974.15,0.91132
4951.01,0.91239
4927.86,0.91054
4904.72,0.91138
4881.57,0.91058
4858.43,0.91125
4835.28,0.91133
4812.14,0.90743
4788.99,0.90674
4765.85,0.90904
4742.7,0.90496
4719.56,0.89558
4696.42,0.87902
4673.27,0.87699
4650.13,0.88453
4626.98,0.87268
4603.84,0.89184
4580.69,0.88667
4557.55,0.89538
4534.4,0.89292
4511.26,0.88546
4488.11,0.86426
4464.97,0.84790
4441.83,0.79901
4418.68,0.70029
4395.54,0.62110
4372.39,0.54223
4349.25,0.41419
4326.1,0.37540
4302.96,0.47972
4279.81,0.47398
4256.67,0.49103
4233.52,0.48347
4210.38,0.46826
4187.24,0.50898
4164.09,0.50210
4140.95,0.56376
4117.8,0.58766
4094.66,0.54913
4071.51,0.54272
4048.37,0.62027
4025.22,0.63257
4002.08,0.65535
3978.93,0.69108
3955.79,0.70467
3932.65,0.69843
3909.5,0.70956
3886.36,0.70571
3863.21,0.69817
3840.07,0.68941
3816.92,0.71017
3793.78,0.75033
3770.63,0.75027
3747.49,0.71506
3724.34,0.74627
3701.2,0.74136
3678.06,0.65037
3654.91,0.68188
3631.77,0.67303
3608.62,0.63888
3585.48,0.61389
3562.33,0.57385
3539.19,0.55237
3516.04,0.53692
3492.9,0.49008
3469.75,0.42961
3446.61,0.36663
3423.47,0.29103
3400.32,0.38441
3377.18,0.46780
3354.03,0.50144
3330.89,0.48785
3307.74,0.34843
3284.6,0.45238
3261.45,0.55446
3238.31,0.56655
3215.16,0.55151
3192.02,0.53958
3168.87,0.54347
3145.73,0.53374
3122.59,0.49111
3099.44,0.41616
3076.3,0.33445
3053.15,0.27034
3030.01,0.24030
3006.86,0.08332
2983.72,0.00052
2960.57,0.00085
2937.43,0.00072
2914.28,0.00014
2891.14,0.00016
2868,0.00045
2844.85,0.00053
2821.71,0.06140
2798.56,0.21616
2775.42,0.34531
2752.27,0.36321
2729.13,0.33904
2705.98,0.44340
2682.84,0.46203
2659.69,0.48301
2636.55,0.50168
2613.41,0.48740
2590.26,0.48779
2567.12,0.49603
2543.97,0.51771
2520.83,0.54440
2497.68,0.59193
2474.54,0.61188
2451.39,0.61883
2428.25,0.58919
2405.1,0.54629
2381.96,0.49878
2358.82,0.43297
2335.67,0.52218
2312.53,0.60184
2289.38,0.61831
2266.24,0.61710
2243.09,0.62494
2219.95,0.63437
2196.8,0.67163
2173.66,0.69753
2150.51,0.68910
2127.37,0.68160
2104.23,0.67424
2081.08,0.66090
2057.94,0.66413
2034.79,0.68127
2011.65,0.69878
1988.5,0.66405
1965.36,0.60934
1942.21,0.51762
1919.07,0.63025
1895.92,0.64871
1872.78,0.65546
1849.64,0.59510
1826.49,0.41377
1803.35,0.42574
1780.2,0.29828
1757.06,0.08518
1733.91,0.00080
1710.77,0.00032
1687.62,0.04818
1664.48,0.18161
1641.33,0.19543
1618.19,0.29579
1595.05,0.34743
1571.9,0.16220
1548.76,0.26295
1525.61,0.24323
1502.47,0.07594
1479.32,0.03831
1456.18,0.00049
1433.03,0.00026
1409.89,0.00007
1386.74,0.00054
1363.6,0.00145
1340.46,0.00059
1317.31,0.00013
1294.17,0.00044
1271.02,0.00049
1247.88,0.00051
1224.73,0.00024
1201.59,0.00148
1178.44,0.01216
1155.3,0.00607
1132.15,0.00044
1109.01,0.00056
1085.87,0.00031
1062.72,0.01409
1039.58,0.02318
1016.43,0.00056
993.287,0.00240
970.142,0.00018
946.998,0.00052
923.853,0.00334
900.709,0.02615
877.564,0.00451
854.42,0.03908
831.275,0.02888
808.131,0.16205
784.986,0.10187
761.842,0.10277
738.697,0.00469
715.552,0.02176
692.408,0.00022
669.263,0.01224
646.119,0.00039
622.974,0.00347
599.83,0.00433

File: PEVA_0.26_IS_Trans_S_240819_R11.dpt
7496.91,0.93075
7473.76,0.93630
7450.62,0.94542
7427.47,0.93945
7404.33,0.92158
7381.18,0.91064
7358.04,0.93147
7334.89,0.91819
7311.75,0.90817
7288.61,0.90959
7265.46,0.91320
7242.32,0.89732
7219.17,0.91469
7196.03,0.91937
7172.88,0.92643
7149.74,0.91170
7126.59,0.90660
7103.45,0.90135
7080.3,0.90193
7057.16,0.91774
7034.02,0.90970
7010.87,0.91498
6987.73,0.91444
6964.58,0.92312
6941.44,0.92584
6918.29,0.91922
6895.15,0.92103
6872,0.92309
6848.86,0.91267
6825.71,0.92478
6802.57,0.91732
6779.43,0.92137
6756.28,0.92439
6733.14,0.93001
6709.99,0.92813
6686.85,0.92250
6663.7,0.92270
6640.56,0.92988
6617.41,0.92387
6594.27,0.93151
6571.12,0.92894
6547.98,0.92523
6524.84,0.92990
6501.69,0.93230
6478.55,0.93159
6455.4,0.93300
6432.26,0.92983
6409.11,0.92319
6385.97,0.93296
6362.82,0.92809
6339.68,0.93190
6316.53,0.92987
6293.39,0.93656
6270.24,0.93415
6247.1,0.93196
6223.96,0.92914
6200.81,0.92683
6177.67,0.92626
6154.52,0.92606
6131.38,0.92604
6108.23,0.91971
6085.09,0.91295
6061.94,0.90533
6038.8,0.88745
6015.65,0.88266
5992.51,0.89290
5969.37,0.89790
5946.22,0.89393
5923.08,0.87011
5899.93,0.84382
5876.79,0.80958
5853.64,0.77418
5830.5,0.72204
5807.35,0.75238
5784.21,0.80565
5761.06,0.81698
5737.92,0.81454
5714.78,0.81844
5691.63,0.82388
5668.49,0.83702
5645.34,0.84676
5622.2,0.85567
5599.05,0.86312
5575.91,0.87106
5552.76,0.87409
5529.62,0.87444
5506.47,0.87530
5483.33,0.87557
5460.19,0.87189
5437.04,0.87734
5413.9,0.87521
5390.75,0.88565
5367.61,0.89357
5344.46,0.88028
5321.32,0.89861
5298.17,0.89856
5275.03,0.89799
5251.88,0.89427
5228.74,0.89477
5205.6,0.88957
5182.45,0.89739
5159.31,0.89829
5136.16,0.89866
5113.02,0.90046
5089.87,0.90009
5066.73,0.90741
5043.58,0.90586
5020.44,0.90897
4997.29,0.90768
4974.15,0.90711
4951.01,0.90970
4927.86,0.90866
4904.72,0.90863
4881.57,0.90907
4858.43,0.90934
4835.28,0.90853
4812.14,0.90697
4788.99,0.90385
4765.85,0.90653
4742.7,0.90534
4719.56,0.89258
4696.42,0.87891
4673.27,0.87626
4650.13,0.88141
4626.98,0.87082
4603.84,0.89058
4580.69,0.88652
4557.55,0.89214
4534.4,0.89072
4511.26,0.88431
4488.11,0.86363
4464.97,0.84724
4441.83,0.79760
4418.68,0.69952
4395.54,0.62031
4372.39,0.54248
4349.25,0.41430
4326.1,0.37608
4302.96,0.47945
4279.81,0.47376
4256.67,0.49046
4233.52,0.48288
4210.38,0.46856
4187.24,0.50850
4164.09,0.50127
4140.95,0.56343
4117.8,0.58802
4094.66,0.54908
4071.51,0.54290
4048.37,0.62067
4025.22,0.63352
4002.08,0.65677
3978.93,0.69097
3955.79,0.70560
3932.65,0.70145
3909.5,0.71006
3886.36,0.70970
3863.21,0.70250
3840.07,0.69925
3816.92,0.71515
3793.78,0.75049
3770.63,0.75526
3747.49,0.72529
3724.34,0.75430
3701.2,0.74530
3678.06,0.66083
3654.91,0.68819
3631.77,0.68041
3608.62,0.64360
3585.48,0.61770
3562.33,0.57672
3539.19,0.55470
3516.04,0.53826
3492.9,0.49190
3469.75,0.42990
3446.61,0.36830
3423.47,0.29151
3400.32,0.38573
3377.18,0.46857
3354.03,0.50148
3330.89,0.48766
3307.74,0.34815
3284.6,0.45203
3261.45,0.55430
3238.31,0.56631
3215.16,0.55100
3192.02,0.53911
3168.87,0.54423
3145.73,0.53300
3122.59,0.49088
3099.44,0.41655
3076.3,0.33439
3053.15,0.27100
3030.01,0.24028
3006.86,0.08339
2983.72,0.00075
2960.57,0.00067
2937.43,0.00024
2914.28,0.00062
2891.14,0.00058
2868,0.00025
2844.85,0.00116
2821.71,0.06114
2798.56,0.21636
2775.42,0.34565
2752.27,0.36371
2729.13,0.33951
2705.98,0.44387
2682.84,0.46202
2659.69,0.48377
2636.55,0.50259
2613.41,0.48795
2590.26,0.48863
2567.12,0.49724
2543.97,0.51790
2520.83,0.54543
2497.68,0.59347
2474.54,0.61315
2451.39,0.62003
2428.25,0.58994
2405.1,0.54775
2381.96,0.50380
2358.82,0.45838
2335.67,0.54409
2312.53,0.61401
2289.38,0.62090
2266.24,0.61891
2243.09,0.62728
2219.95,0.63672
2196.8,0.67401
2173.66,0.69946
2150.51,0.69073
2127.37,0.68403
2104.23,0.67744
2081.08,0.66380
2057.94,0.66577
2034.79,0.68384
2011.65,0.70186
1988.5,0.66747
1965.36,0.61276
1942.21,0.52097
1919.07,0.63384
1895.92,0.65203
1872.78,0.65899
1849.64,0.59904
1826.49,0.41723
1803.35,0.42906
1780.2,0.30067
1757.06,0.08634
1733.91,0.00043
1710.77,0.00044
1687.62,0.04877
1664.48,0.18359
1641.33,0.19762
1618.19,0.30097
1595.05,0.35098
1571.9,0.16451
1548.76,0.26627
1525.61,0.24800
1502.47,0.07694
1479.32,0.03858
1456.18,0.00072
1433.03,0.00023
1409.89,0.00006
1386.74,0.00015
1363.6,0.00166
1340.46,0.00032
1317.31,0.00038
1294.17,0.00018
1271.02,0.00016
1247.88,0.00036
1224.73,0.00041
1201.59,0.00139
1178.44,0.01232
1155.3,0.00618
1132.15,0.00012
1109.01,0.00053
1085.87,0.00056
1062.72,0.01385
1039.58,0.02255
1016.43,0.00113
993.287,0.00200
970.142,0.00020
946.998,0.00010
923.853,0.00368
900.709,0.02661
877.564,0.00437
854.42,0.04048
831.275,0.02951
808.131,0.16303
784.986,0.10341
761.842,0.10345
738.697,0.00428
715.552,0.02301
692.408,0.00110
669.263,0.01407
646.119,0.00091
622.974,0.00169
599.83,0.00649

File: PEVA_0.26_IS_Trans_T_240819_R2.dpt
7496.91,0.02591
7473.76,0.01636
7450.62,0.01998
7427.47,0.02527
7404.33,0.01592
7381.18,0.02231
7358.04,0.03755
7334.89,0.01997
7311.75,0.02593
7288.61,0.01896
7265.46,0.01136
7242.32,0.03510
7219.17,0.01462
7196.03,0.01983
7172.88,0.00966
7149.74,0.02584
7126.59,0.01540
7103.45,0.01093
7080.3,0.01427
7057.16,0.00891
7034.02,0.01665
7010.87,0.01049
6987.73,0.01182
6964.58,0.00186
6941.44,0.00288
6918.29,0.00564
6895.15,0.01587
6872,0.00309
6848.86,0.00885
6825.71,0.00563
6802.57,0.01174
6779.43,0.01015
6756.28,0.00334
6733.14,0.01104
6709.99,0.01297
6686.85,0.01150
6663.7,0.01283
6640.56,0.00998
6617.41,0.00551
6594.27,0.00112
6571.12,0.01319
6547.98,0.00916
6524.84,0.00800
6501.69,0.01834
6478.55,0.00665
6455.4,0.01433
6432.26,0.00581
6409.11,0.01758
6385.97,0.00893
6362.82,0.00107
6339.68,0.00688
6316.53,0.00604
6293.39,0.00110
6270.24,0.00855
6247.1,0.01085
6223.96,0.00549
6200.81,0.00176
6177.67,0.01056
6154.52,0.00500
6131.38,0.00655
6108.23,0.00123
6085.09,0.00644
6061.94,0.00656
6038.8,0.00555
6015.65,0.00415
5992.51,-0.00096
5969.37,0.00994
5946.22,0.00484
5923.08,0.00333
5899.93,0.00706
5876.79,0.00608
5853.64,0.00426
5830.5,0.00473
5807.35,0.00212
5784.21,0.00431
5761.06,0.00646
5737.92,-0.00016
5714.78,0.00614
5691.63,0.00241
5668.49,0.00362
5645.34,0.00528
5622.2,0.00243
5599.05,0.00006
5575.91,0.00365
5552.76,0.00269
5529.62,0.00651
5506.47,0.00167
5483.33,0.00261
5460.19,0.00156
5437.04,0.00304
5413.9,0.00239
5390.75,0.00214
5367.61,0.00377
5344.46,0.00105
5321.32,0.00100
5298.17,0.00265
5275.03,0.00173
5251.88,0.00279
5228.74,0.00303
5205.6,0.00212
5182.45,0.00152
5159.31,0.00167
5136.16,0.00374
5113.02,0.00279
5089.87,0.00350
5066.73,0.00179
5043.58,0.00217
5020.44,0.00015
4997.29,0.00152
4974.15,0.00049
4951.01,0.00243
4927.86,0.00202
4904.72,0.00248
4881.57,0.00216
4858.43,0.00301
4835.28,0.00253
4812.14,0.00167
4788.99,0.00122
4765.85,0.00145
4742.7,0.00119
4719.56,0.00076
4696.42,0.00170
4673.27,0.00291
4650.13,0.00141
4626.98,0.00153
4603.84,0.00061
4580.69,0.00120
4557.55,0.00136
4534.4,0.00044
4511.26,0.00184
4488.11,0.00340
4464.97,0.00107
4441.83,0.00329
4418.68,0.00053
4395.54,0.00092
4372.39,0.00058
4349.25,0.00127
4326.1,0.00229
4302.96,0.00261
4279.81,0.00246
4256.67,0.00085
4233.52,0.00048
4210.38,0.00056
4187.24,0.00122
4164.09,0.00149
4140.95,0.00139
4117.8,0.00092
4094.66,0.00063
4071.51,0.00079
4048.37,0.00092
4025.22,-0.00006
4002.08,0.00066
3978.93,0.00074
3955.79,0.00055
3932.65,0.00106
3909.5,0.00083
3886.36,0.00152
3863.21,0.00060
3840.07,0.00205
3816.92,0.00164
3793.78,0.00166
3770.63,0.00131
3747.49,0.00144
3724.34,0.00027
3701.2,0.00138
3678.06,0.00167
3654.91,0.00280
3631.77,0.00137
3608.62,0.00204
3585.48,0.00177
3562.33,0.00087
3539.19,0.00034
3516.04,0.00101
3492.9,0.00039
3469.75,0.00275
3446.61,0.00116
3423.47,0.00048
3400.32,0.00198
3377.18,0.00137
3354.03,0.00028
3330.89,0.00122
3307.74,0.00157
3284.6,0.00080
3261.45,0.00073
3238.31,0.00220
3215.16,0.00183
3192.02,0.00050
3168.87,0.00024
3145.73,0.00029
3122.59,0.00095
3099.44,0.00075
3076.3,0.00117
3053.15,0.00070
3030.01,0.00014
3006.86,0.00048
2983.72,0.00050
2960.57,0.00041
2937.43,0.00082
2914.28,0.00074
2891.14,0.00055
2868,0.00092
2844.85,0.00056
2821.71,0.00092
2798.56,0.00091
2775.42,0.00059
2752.27,0.00047
2729.13,0.00032
2705.98,0.00015
2682.84,0.00033
2659.69,0.00041
2636.55,0.00069
2613.41,0.00040
2590.26,0.00013
2567.12,0.00052
2543.97,0.00042
2520.83,0.00054
2497.68,0.00051
2474.54,0.00030
2451.39,0.00073
2428.25,0.00038
2405.1,0.00000
2381.96,0.00087
2358.82,0.00054
2335.67,0.00109
2312.53,0.00047
2289.38,0.00060
2266.24,0.00070
2243.09,0.00049
2219.95,0.00058
2196.8,0.00076
2173.66,0.00026
2150.51,0.00057
2127.37,0.00015
2104.23,0.00043
2081.08,0.00114
2057.94,0.00064
2034.79,0.00034
2011.65,0.00105
1988.5,0.00033
1965.36,0.00053
1942.21,0.00054
1919.07,0.00067
1895.92,0.00031
1872.78,0.00067
1849.64,0.00042
1826.49,0.00062
1803.35,0.00059
1780.2,0.00042
1757.06,0.00023
1733.91,0.00057
1710.77,0.00074
1687.62,0.00092
1664.48,0.00069
1641.33,0.00052
1618.19,0.00053
1595.05,0.00032
1571.9,-0.00002
1548.76,0.00120
1525.61,0.00092
1502.47,0.00097
1479.32,0.00083
1456.18,0.00117
1433.03,0.00054
1409.89,0.00046
1386.74,0.00059
1363.6,0.00035
1340.46,0.00061
1317.31,0.00032
1294.17,0.00030
1271.02,0.00014
1247.88,0.00061
1224.73,0.00028
1201.59,0.00099
1178.44,0.00035
1155.3,0.00060
1132.15,0.00023
1109.01,0.00036
1085.87,0.00121
1062.72,0.00040
1039.58,0.00047
1016.43,0.00113
993.287,0.00132
970.142,0.00062
946.998,0.00094
923.853,0.00053
900.709,0.00102
877.564,0.00143
854.42,0.00127
831.275,0.00113
808.131,0.00103
784.986,0.00149
761.842,0.00059
738.697,0.00050
715.552,0.00070
692.408,0.00163
669.263,0.00123
646.119,0.00228
622.974,-0.00083
599.83,0.00249

File: PEVA_0.26_IS_Trans_T_240819_R5.dpt
7496.91,0.01899
7473.76,0.02906
7450.62,0.02169
7427.47,0.01979
7404.33,0.00603
7381.18,0.04713
7358.04,0.01478
7334.89,0.00846
7311.75,0.03468
7288.61,0.02607
7265.46,0.00656
7242.32,0.03761
7219.17,0.03900
7196.03,0.02052
7172.88,0.01838
7149.74,0.02161
7126.59,0.02922
7103.45,0.03815
7080.3,0.01302
7057.16,0.00891
7034.02,0.00826
7010.87,0.02324
6987.73,0.02728
6964.58,0.00778
6941.44,0.00335
6918.29,0.00225
6895.15,0.03172
6872,0.01135
6848.86,0.02396
6825.71,0.01360
6802.57,0.01348
6779.43,0.01181
6756.28,0.02795
6733.14,0.01921
6709.99,0.01251
6686.85,0.01301
6663.7,0.00570
6640.56,0.00481
6617.41,0.01002
6594.27,0.00582
6571.12,0.01781
6547.98,0.01276
6524.84,0.01162
6501.69,-0.00489
6478.55,0.00806
6455.4,0.01511
6432.26,0.00755
6409.11,0.00789
6385.97,0.00921
6362.82,0.00769
6339.68,0.01077
6316.53,-0.00152
6293.39,0.00726
6270.24,0.00802
6247.1,0.00643
6223.96,0.00949
6200.81,0.00503
6177.67,0.00626
6154.52,0.01381
6131.38,0.00335
6108.23,0.01153
6085.09,0.01411
6061.94,0.00898
6038.8,0.00016
6015.65,0.00694
5992.51,0.00758
5969.37,0.00468
5946.22,0.00705
5923.08,0.01027
5899.93,0.00593
5876.79,0.00282
5853.64,0.00561
5830.5,0.00265
5807.35,0.00542
5784.21,0.00467
5761.06,0.00408
5737.92,0.00475
5714.78,0.00272
5691.63,0.00572
5668.49,0.00281
5645.34,0.00354
5622.2,0.00010
5599.05,0.00540
5575.91,0.00520
5552.76,0.00381
5529.62,0.00326
5506.47,0.00513
5483.33,0.00274
5460.19,0.00133
5437.04,0.00773
5413.9,0.00374
5390.75,0.00138
5367.61,0.00382
5344.46,0.00256
5321.32,0.00281
5298.17,0.00491
5275.03,0.00447
5251.88,0.00310
5228.74,0.00278
5205.6,0.00572
5182.45,0.00272
5159.31,0.00439
5136.16,0.00036
5113.02,0.00200
5089.87,0.00494
5066.73,0.00062
5043.58,0.00362
5020.44,0.00116
4997.29,0.00339
4974.15,0.00130
4951.01,0.00199
4927.86,0.00099
4904.72,0.00282
4881.57,0.00403
4858.43,0.00150
4835.28,0.00265
4812.14,0.00107
4788.99,0.00185
4765.85,-0.00003
4742.7,0.00253
4719.56,0.00072
4696.42,0.00075
4673.27,0.00129
4650.13,0.00029
4626.98,0.00144
4603.84,0.00131
4580.69,0.00304
4557.55,0.00048
4534.4,0.00305
4511.26,0.00272
4488.11,0.00134
4464.97,0.00139
4441.83,0.00215
4418.68,0.00060
4395.54,0.00177
4372.39,0.00158
4349.25,0.00287
4326.1,0.00236
4302.96,0.00088
4279.81,0.00049
4256.67,0.00186
4233.52,0.00127
4210.38,0.00224
4187.24,0.00182
4164.09,0.00126
4140.95,0.00113
4117.8,0.00015
4094.66,0.00030
4071.51,0.00202
4048.37,0.00185
4025.22,0.00230
4002.08,0.00126
3978.93,-0.00012
3955.79,0.00038
3932.65,0.00152
3909.5,0.00159
3886.36,0.00130
3863.21,0.00315
3840.07,0.00416
3816.92,0.00256
3793.78,0.00141
3770.63,0.00230
3747.49,0.00092
3724.34,0.00043
3701.2,0.00233
3678.06,0.00207
3654.91,0.00279
3631.77,0.00037
3608.62,0.00130
3585.48,0.00198
3562.33,0.00198
3539.19,0.00099
3516.04,0.00127
3492.9,0.00297
3469.75,0.00200
3446.61,0.00201
3423.47,0.00123
3400.32,0.00211
3377.18,0.00220
3354.03,0.00237
3330.89,0.00135
3307.74,0.00159
3284.6,0.00312
3261.45,0.00123
3238.31,0.00313
3215.16,-0.00015
3192.02,0.00264
3168.87,0.00260
3145.73,-0.00038
3122.59,0.00049
3099.44,0.00083
3076.3,0.00127
3053.15,0.00173
3030.01,0.00129
3006.86,0.00168
2983.72,0.00113
2960.57,0.00221
2937.43,0.00105
2914.28,0.00179
2891.14,0.00154
2868,0.00130
2844.85,0.00047
2821.71,0.00082
2798.56,0.00078
2775.42,0.00129
2752.27,0.00065
2729.13,0.00162
2705.98,0.00028
2682.84,0.00083
2659.69,0.00038
2636.55,0.00069
2613.41,0.00163
2590.26,0.00100
2567.12,0.00009
2543.97,0.00112
2520.83,0.00077
2497.68,0.00096
2474.54,0.00056
2451.39,0.00073
2428.25,0.00095
2405.1,-0.00007
2381.96,0.00133
2358.82,0.00109
2335.67,0.00176
2312.53,0.00121
2289.38,0.00031
2266.24,0.00072
2243.09,0.00117
2219.95,0.00102
2196.8,0.00080
2173.66,0.00089
2150.51,0.00114
2127.37,0.00131
2104.23,0.00029
2081.08,0.00083
2057.94,0.00087
2034.79,0.00076
2011.65,0.00054
1988.5,0.00055
1965.36,0.00033
1942.21,0.00071
1919.07,0.00005
1895.92,0.00126
1872.78,0.00061
1849.64,0.00057
1826.49,0.00087
1803.35,0.00076
1780.2,0.00076
1757.06,0.00099
1733.91,0.00092
1710.77,0.00053
1687.62,0.00116
1664.48,0.00088
1641.33,0.00077
1618.19,0.00155
1595.05,0.00077
1571.9,0.00154
1548.76,0.00119
1525.61,0.00097
1502.47,-0.00009
1479.32,0.00063
1456.18,0.00048
1433.03,0.00055
1409.89,0.00052
1386.74,0.00093
1363.6,0.00046
1340.46,0.00082
1317.31,0.00101
1294.17,0.00085
1271.02,0.00048
1247.88,0.00031
1224.73,0.00062
1201.59,0.00086
1178.44,0.00052
1155.3,0.00142
1132.15,0.00063
1109.01,0.00161
1085.87,0.00140
1062.72,0.00136
1039.58,0.00136
1016.43,0.00038
993.287,0.00159
970.142,0.00040
946.998,0.00121
923.853,0.00084
900.709,0.00058
877.564,0.00110
854.42,0.00164
831.275,0.00102
808.131,0.00218
784.986,0.00098
761.842,0.00239
738.697,-0.00019
715.552,0.00139
692.408,0.00249
669.263,0.00238
646.119,0.00239
622.974,0.00388
599.83,0.00744