Folder: fsri_materials_database/01_Data/PEVA/FTIR/IS (part 10)

File: PEVA_0.18_IS_T_240809_R2.dpt
7497.33,0.04819
7474.19,0.03647
7451.04,0.03830
7427.9,0.03756
7404.75,0.02701
7381.6,0.03749
7358.46,0.03830
7335.31,0.03203
7312.17,0.03878
7289.02,0.03057
7265.87,0.03882
7242.73,0.03017
7219.58,0.03453
7196.44,0.02050
7173.29,0.02796
7150.15,0.03012
7127,0.02772
7103.85,0.03309
7080.71,0.02863
7057.56,0.03249
7034.42,0.02820
7011.27,0.02657
6988.12,0.03557
6964.98,0.04123
6941.83,0.03090
6918.69,0.04366
6895.54,0.03547
6872.39,0.03466
6849.25,0.03268
6826.1,0.03679
6802.96,0.02484
6779.81,0.03131
6756.67,0.02909
6733.52,0.03871
6710.37,0.03407
6687.23,0.03176
6664.08,0.03398
6640.94,0.02768
6617.79,0.03885
6594.64,0.02902
6571.5,0.02786
6548.35,0.03183
6525.21,0.02453
6502.06,0.03279
6478.92,0.03701
6455.77,0.03080
6432.62,0.03488
6409.48,0.03099
6386.33,0.02727
6363.19,0.02908
6340.04,0.03694
6316.89,0.02946
6293.75,0.03277
6270.6,0.02832
6247.46,0.02962
6224.31,0.03325
6201.16,0.02588
6178.02,0.03051
6154.87,0.03209
6131.73,0.02912
6108.58,0.03076
6085.44,0.02579
6062.29,0.02819
6039.14,0.02968
6016,0.02702
5992.85,0.03158
5969.71,0.03033
5946.56,0.03245
5923.41,0.02736
5900.27,0.03044
5877.12,0.03116
5853.98,0.03132
5830.83,0.03245
5807.68,0.02753
5784.54,0.03089
5761.39,0.03153
5738.25,0.03107
5715.1,0.02768
5691.96,0.03011
5668.81,0.03124
5645.66,0.02938
5622.52,0.03068
5599.37,0.02996
5576.23,0.02862
5553.08,0.03001
5529.93,0.03122
5506.79,0.03144
5483.64,0.03091
5460.5,0.03065
5437.35,0.03110
5414.21,0.02731
5391.06,0.03089
5367.91,0.02890
5344.77,0.02931
5321.62,0.02916
5298.48,0.03323
5275.33,0.03038
5252.18,0.02879
5229.04,0.03016
5205.89,0.02887
5182.75,0.03057
5159.6,0.02997
5136.45,0.03134
5113.31,0.03106
5090.16,0.02983
5067.02,0.02925
5043.87,0.03113
5020.73,0.03135
4997.58,0.03024
4974.43,0.02996
4951.29,0.03069
4928.14,0.03010
4905,0.03101
4881.85,0.02926
4858.7,0.02977
4835.56,0.03120
4812.41,0.03123
4789.27,0.03098
4766.12,0.03065
4742.97,0.02991
4719.83,0.03007
4696.68,0.03010
4673.54,0.03074
4650.39,0.03042
4627.25,0.02979
4604.1,0.03158
4580.95,0.03156
4557.81,0.03075
4534.66,0.02974
4511.52,0.02892
4488.37,0.03100
4465.22,0.03045
4442.08,0.02898
4418.93,0.02993
4395.79,0.02956
4372.64,0.03006
4349.49,0.03058
4326.35,0.03009
4303.2,0.03047
4280.06,0.03022
4256.91,0.02946
4233.77,0.03033
4210.62,0.03045
4187.47,0.03076
4164.33,0.03054
4141.18,0.03015
4118.04,0.02999
4094.89,0.03071
4071.74,0.03011
4048.6,0.03058
4025.45,0.03013
4002.31,0.03008
3979.16,0.03065
3956.02,0.03012
3932.87,0.03062
3909.72,0.03071
3886.58,0.02945
3863.43,0.03123
3840.29,0.02920
3817.14,0.03044
3793.99,0.02925
3770.85,0.03116
3747.7,0.03058
3724.56,0.03116
3701.41,0.02994
3678.26,0.03062
3655.12,0.02919
3631.97,0.02868
3608.83,0.02838
3585.68,0.02880
3562.54,0.02816
3539.39,0.02732
3516.24,0.02633
3493.1,0.02680
3469.95,0.02663
3446.81,0.02636
3423.66,0.02747
3400.51,0.02650
3377.37,0.02660
3354.22,0.02677
3331.08,0.02612
3307.93,0.02644
3284.78,0.02710
3261.64,0.02685
3238.49,0.02658
3215.35,0.02697
3192.2,0.02685
3169.06,0.02732
3145.91,0.02721
3122.76,0.02696
3099.62,0.02752
3076.47,0.02666
3053.33,0.02665
3030.18,0.02739
3007.03,0.02712
2983.89,0.02625
2960.74,0.02578
2937.6,0.02603
2914.45,0.02645
2891.31,0.02621
2868.16,0.02701
2845.01,0.02788
2821.87,0.02724
2798.72,0.02776
2775.58,0.02784
2752.43,0.02756
2729.28,0.02750
2706.14,0.02725
2682.99,0.02780
2659.85,0.02777
2636.7,0.02702
2613.55,0.02748
2590.41,0.02763
2567.26,0.02709
2544.12,0.02744
2520.97,0.02723
2497.83,0.02708
2474.68,0.02726
2451.53,0.02693
2428.39,0.02700
2405.24,0.02742
2382.1,0.02755
2358.95,0.02673
2335.8,0.02745
2312.66,0.02680
2289.51,0.02737
2266.37,0.02652
2243.22,0.02642
2220.07,0.02662
2196.93,0.02634
2173.78,0.02654
2150.64,0.02620
2127.49,0.02630
2104.35,0.02633
2081.2,0.02578
2058.05,0.02624
2034.91,0.02655
2011.76,0.02606
1988.62,0.02622
1965.47,0.02620
1942.32,0.02551
1919.18,0.02596
1896.03,0.02515
1872.89,0.02554
1849.74,0.02486
1826.6,0.02487
1803.45,0.02415
1780.3,0.02356
1757.16,0.02187
1734.01,0.02367
1710.87,0.02441
1687.72,0.02326
1664.57,0.02165
1641.43,0.02189
1618.28,0.02282
1595.14,0.02258
1571.99,0.02214
1548.84,0.02207
1525.7,0.02234
1502.55,0.02205
1479.41,0.02203
1456.26,0.02103
1433.12,0.02223
1409.97,0.02153
1386.82,0.02090
1363.68,0.02112
1340.53,0.02064
1317.39,0.02035
1294.24,0.02061
1271.09,0.02266
1247.95,0.02276
1224.8,0.02197
1201.66,0.02143
1178.51,0.02093
1155.36,0.01989
1132.22,0.02065
1109.07,0.02221
1085.93,0.02254
1062.78,0.02447
1039.64,0.02400
1016.49,0.02356
993.344,0.02392
970.198,0.02411
947.052,0.02314
923.906,0.02267
900.76,0.02224
877.614,0.02207
854.468,0.02241
831.323,0.02177
808.177,0.02124
785.031,0.02040
761.885,0.02001
738.739,0.02058
715.593,0.01964
692.447,0.01944
669.301,0.01856
646.156,0.01940
623.01,0.02100
599.864,0.01827

File: PEVA_0.18_IS_T_240809_R4.dpt
7497.33,0.05042
7474.19,0.03675
7451.04,0.03037
7427.9,0.01384
7404.75,0.03151
7381.6,0.03567
7358.46,0.03001
7335.31,0.03330
7312.17,0.05298
7289.02,0.03454
7265.87,0.03350
7242.73,0.02117
7219.58,0.03033
7196.44,0.04075
7173.29,0.03979
7150.15,0.02874
7127,0.04219
7103.85,0.02616
7080.71,0.02686
7057.56,0.03182
7034.42,0.03632
7011.27,0.03993
6988.12,0.03493
6964.98,0.03191
6941.83,0.02246
6918.69,0.02828
6895.54,0.03487
6872.39,0.03412
6849.25,0.03287
6826.1,0.03570
6802.96,0.03325
6779.81,0.03476
6756.67,0.03402
6733.52,0.03565
6710.37,0.03059
6687.23,0.03554
6664.08,0.03355
6640.94,0.03409
6617.79,0.03231
6594.64,0.02919
6571.5,0.03561
6548.35,0.02740
6525.21,0.03952
6502.06,0.03492
6478.92,0.03432
6455.77,0.02561
6432.62,0.02996
6409.48,0.03575
6386.33,0.03135
6363.19,0.03393
6340.04,0.02695
6316.89,0.03092
6293.75,0.02943
6270.6,0.03070
6247.46,0.03461
6224.31,0.03319
6201.16,0.02997
6178.02,0.03117
6154.87,0.02861
6131.73,0.03361
6108.58,0.02971
6085.44,0.03363
6062.29,0.02952
6039.14,0.03050
6016,0.03078
5992.85,0.03250
5969.71,0.03068
5946.56,0.02860
5923.41,0.03198
5900.27,0.02791
5877.12,0.02833
5853.98,0.02768
5830.83,0.03147
5807.68,0.02920
5784.54,0.02998
5761.39,0.02957
5738.25,0.02897
5715.1,0.02994
5691.96,0.03211
5668.81,0.03012
5645.66,0.03066
5622.52,0.03105
5599.37,0.02944
5576.23,0.03196
5553.08,0.03110
5529.93,0.03086
5506.79,0.03287
5483.64,0.02883
5460.5,0.03070
5437.35,0.03162
5414.21,0.02847
5391.06,0.03220
5367.91,0.03116
5344.77,0.03025
5321.62,0.02884
5298.48,0.02950
5275.33,0.03028
5252.18,0.03029
5229.04,0.02974
5205.89,0.03175
5182.75,0.02945
5159.6,0.03078
5136.45,0.03216
5113.31,0.03015
5090.16,0.03073
5067.02,0.03119
5043.87,0.03042
5020.73,0.03042
4997.58,0.03038
4974.43,0.03012
4951.29,0.03086
4928.14,0.03044
4905,0.03044
4881.85,0.02993
4858.7,0.02973
4835.56,0.03029
4812.41,0.02987
4789.27,0.03091
4766.12,0.03019
4742.97,0.03028
4719.83,0.02922
4696.68,0.03073
4673.54,0.03067
4650.39,0.02986
4627.25,0.03002
4604.1,0.02991
4580.95,0.03083
4557.81,0.03009
4534.66,0.03047
4511.52,0.02879
4488.37,0.03004
4465.22,0.02982
4442.08,0.03091
4418.93,0.02985
4395.79,0.02970
4372.64,0.02953
4349.49,0.02943
4326.35,0.02918
4303.2,0.02991
4280.06,0.03003
4256.91,0.02976
4233.77,0.03073
4210.62,0.02925
4187.47,0.03075
4164.33,0.02968
4141.18,0.03006
4118.04,0.03005
4094.89,0.02982
4071.74,0.03026
4048.6,0.03010
4025.45,0.02976
4002.31,0.02918
3979.16,0.03004
3956.02,0.02947
3932.87,0.02986
3909.72,0.02937
3886.58,0.02972
3863.43,0.03072
3840.29,0.03044
3817.14,0.03001
3793.99,0.02956
3770.85,0.02925
3747.7,0.03020
3724.56,0.02964
3701.41,0.02932
3678.26,0.03025
3655.12,0.02782
3631.97,0.02760
3608.83,0.02762
3585.68,0.02786
3562.54,0.02716
3539.39,0.02635
3516.24,0.02674
3493.1,0.02627
3469.95,0.02661
3446.81,0.02676
3423.66,0.02628
3400.51,0.02624
3377.37,0.02551
3354.22,0.02576
3331.08,0.02568
3307.93,0.02598
3284.78,0.02601
3261.64,0.02582
3238.49,0.02608
3215.35,0.02654
3192.2,0.02662
3169.06,0.02711
3145.91,0.02649
3122.76,0.02634
3099.62,0.02680
3076.47,0.02706
3053.33,0.02666
3030.18,0.02649
3007.03,0.02652
2983.89,0.02580
2960.74,0.02563
2937.6,0.02562
2914.45,0.02637
2891.31,0.02598
2868.16,0.02617
2845.01,0.02676
2821.87,0.02682
2798.72,0.02691
2775.58,0.02717
2752.43,0.02734
2729.28,0.02676
2706.14,0.02721
2682.99,0.02711
2659.85,0.02701
2636.7,0.02698
2613.55,0.02684
2590.41,0.02694
2567.26,0.02699
2544.12,0.02658
2520.97,0.02639
2497.83,0.02731
2474.68,0.02653
2451.53,0.02647
2428.39,0.02623
2405.24,0.02670
2382.1,0.02671
2358.95,0.02701
2335.8,0.02630
2312.66,0.02645
2289.51,0.02615
2266.37,0.02622
2243.22,0.02619
2220.07,0.02605
2196.93,0.02609
2173.78,0.02572
2150.64,0.02567
2127.49,0.02572
2104.35,0.02600
2081.2,0.02535
2058.05,0.02576
2034.91,0.02552
2011.76,0.02593
1988.62,0.02525
1965.47,0.02546
1942.32,0.02532
1919.18,0.02543
1896.03,0.02485
1872.89,0.02453
1849.74,0.02489
1826.6,0.02437
1803.45,0.02411
1780.3,0.02304
1757.16,0.02185
1734.01,0.02369
1710.87,0.02422
1687.72,0.02255
1664.57,0.02212
1641.43,0.02176
1618.28,0.02268
1595.14,0.02225
1571.99,0.02150
1548.84,0.02190
1525.7,0.02255
1502.55,0.02214
1479.41,0.02134
1456.26,0.02157
1433.12,0.02133
1409.97,0.02107
1386.82,0.02067
1363.68,0.02080
1340.53,0.02086
1317.39,0.01948
1294.24,0.01995
1271.09,0.02195
1247.95,0.02286
1224.8,0.02245
1201.66,0.02105
1178.51,0.02044
1155.36,0.02001
1132.22,0.02040
1109.07,0.02219
1085.93,0.02224
1062.78,0.02385
1039.64,0.02396
1016.49,0.02308
993.344,0.02456
970.198,0.02355
947.052,0.02302
923.906,0.02231
900.76,0.02216
877.614,0.02275
854.468,0.02225
831.323,0.02141
808.177,0.02101
785.031,0.02062
761.885,0.02047
738.739,0.02119
715.593,0.01953
692.447,0.02019
669.301,0.01903
646.156,0.01931
623.01,0.01975
599.864,0.01920

File: PEVA_0.18_IS_T_240809_R5.dpt
7497.33,0.04516
7474.19,0.02769
7451.04,0.05398
7427.9,0.04717
7404.75,0.02927
7381.6,0.03624
7358.46,0.02449
7335.31,0.02887
7312.17,0.02515
7289.02,0.03273
7265.87,0.03690
7242.73,0.03761
7219.58,0.03547
7196.44,0.04701
7173.29,0.03238
7150.15,0.03245
7127,0.03036
7103.85,0.02903
7080.71,0.03879
7057.56,0.03362
7034.42,0.04182
7011.27,0.03729
6988.12,0.03078
6964.98,0.02975
6941.83,0.04178
6918.69,0.03971
6895.54,0.02937
6872.39,0.03641
6849.25,0.02916
6826.1,0.03319
6802.96,0.04518
6779.81,0.02596
6756.67,0.03013
6733.52,0.01952
6710.37,0.03703
6687.23,0.03760
6664.08,0.03347
6640.94,0.03132
6617.79,0.02972
6594.64,0.03504
6571.5,0.03152
6548.35,0.03462
6525.21,0.02865
6502.06,0.02920
6478.92,0.03037
6455.77,0.03456
6432.62,0.03819
6409.48,0.03284
6386.33,0.03230
6363.19,0.03474
6340.04,0.02753
6316.89,0.02916
6293.75,0.02978
6270.6,0.02946
6247.46,0.02920
6224.31,0.02986
6201.16,0.03244
6178.02,0.03194
6154.87,0.03022
6131.73,0.03071
6108.58,0.02976
6085.44,0.03154
6062.29,0.03274
6039.14,0.02940
6016,0.03021
5992.85,0.02877
5969.71,0.03136
5946.56,0.03063
5923.41,0.03183
5900.27,0.02967
5877.12,0.03031
5853.98,0.02952
5830.83,0.03149
5807.68,0.02915
5784.54,0.02990
5761.39,0.02902
5738.25,0.03131
5715.1,0.03007
5691.96,0.03055
5668.81,0.02998
5645.66,0.02813
5622.52,0.02979
5599.37,0.03360
5576.23,0.02925
5553.08,0.03175
5529.93,0.03064
5506.79,0.03056
5483.64,0.03237
5460.5,0.03223
5437.35,0.03113
5414.21,0.02907
5391.06,0.03394
5367.91,0.03144
5344.77,0.03119
5321.62,0.03007
5298.48,0.03065
5275.33,0.02916
5252.18,0.03074
5229.04,0.03005
5205.89,0.03025
5182.75,0.03215
5159.6,0.02980
5136.45,0.02912
5113.31,0.02974
5090.16,0.03025
5067.02,0.03150
5043.87,0.03050
5020.73,0.03068
4997.58,0.03140
4974.43,0.03090
4951.29,0.03043
4928.14,0.03086
4905,0.03000
4881.85,0.03005
4858.7,0.02982
4835.56,0.03104
4812.41,0.02987
4789.27,0.03051
4766.12,0.02939
4742.97,0.03100
4719.83,0.03023
4696.68,0.03108
4673.54,0.03044
4650.39,0.02920
4627.25,0.03054
4604.1,0.03050
4580.95,0.03010
4557.81,0.03081
4534.66,0.03056
4511.52,0.02924
4488.37,0.03074
4465.22,0.02880
4442.08,0.02949
4418.93,0.03050
4395.79,0.03150
4372.64,0.02952
4349.49,0.03047
4326.35,0.03118
4303.2,0.03094
4280.06,0.02990
4256.91,0.03055
4233.77,0.03046
4210.62,0.02910
4187.47,0.03025
4164.33,0.03005
4141.18,0.03018
4118.04,0.03012
4094.89,0.02955
4071.74,0.03046
4048.6,0.02951
4025.45,0.03113
4002.31,0.02946
3979.16,0.03052
3956.02,0.03042
3932.87,0.03001
3909.72,0.03119
3886.58,0.03055
3863.43,0.03010
3840.29,0.03035
3817.14,0.03090
3793.99,0.03036
3770.85,0.03036
3747.7,0.02958
3724.56,0.03063
3701.41,0.02924
3678.26,0.03013
3655.12,0.02841
3631.97,0.02836
3608.83,0.02817
3585.68,0.02771
3562.54,0.02676
3539.39,0.02738
3516.24,0.02724
3493.1,0.02658
3469.95,0.02642
3446.81,0.02598
3423.66,0.02711
3400.51,0.02645
3377.37,0.02706
3354.22,0.02609
3331.08,0.02628
3307.93,0.02587
3284.78,0.02663
3261.64,0.02609
3238.49,0.02752
3215.35,0.02674
3192.2,0.02708
3169.06,0.02644
3145.91,0.02689
3122.76,0.02602
3099.62,0.02634
3076.47,0.02735
3053.33,0.02695
3030.18,0.02679
3007.03,0.02673
2983.89,0.02593
2960.74,0.02564
2937.6,0.02532
2914.45,0.02610
2891.31,0.02675
2868.16,0.02664
2845.01,0.02689
2821.87,0.02723
2798.72,0.02781
2775.58,0.02751
2752.43,0.02695
2729.28,0.02743
2706.14,0.02724
2682.99,0.02729
2659.85,0.02744
2636.7,0.02733
2613.55,0.02721
2590.41,0.02729
2567.26,0.02724
2544.12,0.02714
2520.97,0.02707
2497.83,0.02750
2474.68,0.02711
2451.53,0.02715
2428.39,0.02712
2405.24,0.02686
2382.1,0.02717
2358.95,0.02728
2335.8,0.02724
2312.66,0.02668
2289.51,0.02640
2266.37,0.02665
2243.22,0.02653
2220.07,0.02656
2196.93,0.02614
2173.78,0.02615
2150.64,0.02637
2127.49,0.02634
2104.35,0.02583
2081.2,0.02590
2058.05,0.02593
2034.91,0.02613
2011.76,0.02599
1988.62,0.02560
1965.47,0.02583
1942.32,0.02602
1919.18,0.02526
1896.03,0.02556
1872.89,0.02528
1849.74,0.02484
1826.6,0.02482
1803.45,0.02395
1780.3,0.02369
1757.16,0.02166
1734.01,0.02289
1710.87,0.02402
1687.72,0.02305
1664.57,0.02198
1641.43,0.02213
1618.28,0.02238
1595.14,0.02264
1571.99,0.02186
1548.84,0.02195
1525.7,0.02214
1502.55,0.02232
1479.41,0.02225
1456.26,0.02155
1433.12,0.02163
1409.97,0.02111
1386.82,0.02082
1363.68,0.02075
1340.53,0.02057
1317.39,0.01965
1294.24,0.02037
1271.09,0.02173
1247.95,0.02247
1224.8,0.02206
1201.66,0.02148
1178.51,0.02073
1155.36,0.02028
1132.22,0.02078
1109.07,0.02219
1085.93,0.02180
1062.78,0.02370
1039.64,0.02307
1016.49,0.02306
993.344,0.02442
970.198,0.02390
947.052,0.02271
923.906,0.02241
900.76,0.02222
877.614,0.02162
854.468,0.02265
831.323,0.02074
808.177,0.02129
785.031,0.02114
761.885,0.02076
738.739,0.02054
715.593,0.02017
692.447,0.01957
669.301,0.01888
646.156,0.01844
623.01,0.01814
599.864,0.02024

File: PEVA_0.18_IS_T_240809_R6.dpt
7497.33,0.03250
7474.19,0.03149
7451.04,0.04048
7427.9,0.03756
7404.75,0.02026
7381.6,0.03160
7358.46,0.04171
7335.31,0.03922
7312.17,0.04922
7289.02,0.03898
7265.87,0.03908
7242.73,0.03211
7219.58,0.03808
7196.44,0.03397
7173.29,0.03299
7150.15,0.02556
7127,0.02814
7103.85,0.03554
7080.71,0.03560
7057.56,0.03219
7034.42,0.02372
7011.27,0.04212
6988.12,0.03530
6964.98,0.03974
6941.83,0.02670
6918.69,0.03363
6895.54,0.03581
6872.39,0.03195
6849.25,0.03917
6826.1,0.03727
6802.96,0.02982
6779.81,0.03413
6756.67,0.03212
6733.52,0.03447
6710.37,0.03176
6687.23,0.02851
6664.08,0.03202
6640.94,0.03919
6617.79,0.03329
6594.64,0.02666
6571.5,0.03000
6548.35,0.03038
6525.21,0.02789
6502.06,0.03275
6478.92,0.02867
6455.77,0.03005
6432.62,0.02523
6409.48,0.03169
6386.33,0.03378
6363.19,0.02835
6340.04,0.02731
6316.89,0.02907
6293.75,0.02880
6270.6,0.03118
6247.46,0.03346
6224.31,0.03028
6201.16,0.02532
6178.02,0.03505
6154.87,0.03325
6131.73,0.03243
6108.58,0.03000
6085.44,0.03381
6062.29,0.02872
6039.14,0.02818
6016,0.02790
5992.85,0.03035
5969.71,0.03076
5946.56,0.03390
5923.41,0.03185
5900.27,0.02984
5877.12,0.03277
5853.98,0.02929
5830.83,0.03043
5807.68,0.03076
5784.54,0.03068
5761.39,0.02833
5738.25,0.03107
5715.1,0.02895
5691.96,0.02997
5668.81,0.03131
5645.66,0.02898
5622.52,0.02997
5599.37,0.03041
5576.23,0.03060
5553.08,0.02797
5529.93,0.03068
5506.79,0.02880
5483.64,0.02927
5460.5,0.02864
5437.35,0.02948
5414.21,0.03013
5391.06,0.02855
5367.91,0.03101
5344.77,0.03091
5321.62,0.02867
5298.48,0.02868
5275.33,0.02988
5252.18,0.02842
5229.04,0.02884
5205.89,0.02993
5182.75,0.02928
5159.6,0.02993
5136.45,0.02905
5113.31,0.02950
5090.16,0.02930
5067.02,0.02948
5043.87,0.02923
5020.73,0.03064
4997.58,0.02990
4974.43,0.03051
4951.29,0.03034
4928.14,0.03085
4905,0.03025
4881.85,0.02989
4858.7,0.03014
4835.56,0.03018
4812.41,0.02879
4789.27,0.02982
4766.12,0.03045
4742.97,0.03041
4719.83,0.03040
4696.68,0.03095
4673.54,0.02965
4650.39,0.03007
4627.25,0.02996
4604.1,0.02946
4580.95,0.02998
4557.81,0.02986
4534.66,0.03035
4511.52,0.02975
4488.37,0.03023
4465.22,0.03028
4442.08,0.02949
4418.93,0.02986
4395.79,0.02974
4372.64,0.02989
4349.49,0.02915
4326.35,0.02860
4303.2,0.02987
4280.06,0.02987
4256.91,0.02941
4233.77,0.02978
4210.62,0.02949
4187.47,0.02942
4164.33,0.02931
4141.18,0.02944
4118.04,0.03032
4094.89,0.02980
4071.74,0.02915
4048.6,0.02994
4025.45,0.02936
4002.31,0.02947
3979.16,0.02948
3956.02,0.02989
3932.87,0.02972
3909.72,0.02957
3886.58,0.03017
3863.43,0.03066
3840.29,0.03091
3817.14,0.02972
3793.99,0.02905
3770.85,0.03024
3747.7,0.03108
3724.56,0.02982
3701.41,0.02963
3678.26,0.02897
3655.12,0.02869
3631.97,0.02797
3608.83,0.02740
3585.68,0.02693
3562.54,0.02702
3539.39,0.02646
3516.24,0.02617
3493.1,0.02625
3469.95,0.02722
3446.81,0.02593
3423.66,0.02594
3400.51,0.02512
3377.37,0.02528
3354.22,0.02518
3331.08,0.02600
3307.93,0.02568
3284.78,0.02592
3261.64,0.02544
3238.49,0.02624
3215.35,0.02615
3192.2,0.02648
3169.06,0.02595
3145.91,0.02652
3122.76,0.02650
3099.62,0.02696
3076.47,0.02631
3053.33,0.02642
3030.18,0.02621
3007.03,0.02607
2983.89,0.02583
2960.74,0.02524
2937.6,0.02505
2914.45,0.02624
2891.31,0.02602
2868.16,0.02596
2845.01,0.02670
2821.87,0.02633
2798.72,0.02620
2775.58,0.02682
2752.43,0.02690
2729.28,0.02715
2706.14,0.02672
2682.99,0.02715
2659.85,0.02677
2636.7,0.02665
2613.55,0.02712
2590.41,0.02707
2567.26,0.02673
2544.12,0.02683
2520.97,0.02657
2497.83,0.02665
2474.68,0.02688
2451.53,0.02624
2428.39,0.02620
2405.24,0.02619
2382.1,0.02634
2358.95,0.02767
2335.8,0.02705
2312.66,0.02687
2289.51,0.02623
2266.37,0.02622
2243.22,0.02619
2220.07,0.02596
2196.93,0.02578
2173.78,0.02592
2150.64,0.02560
2127.49,0.02583
2104.35,0.02578
2081.2,0.02561
2058.05,0.02541
2034.91,0.02528
2011.76,0.02553
1988.62,0.02541
1965.47,0.02522
1942.32,0.02535
1919.18,0.02552
1896.03,0.02476
1872.89,0.02506
1849.74,0.02444
1826.6,0.02449
1803.45,0.02366
1780.3,0.02296
1757.16,0.02151
1734.01,0.02285
1710.87,0.02412
1687.72,0.02285
1664.57,0.02176
1641.43,0.02160
1618.28,0.02222
1595.14,0.02195
1571.99,0.02157
1548.84,0.02178
1525.7,0.02203
1502.55,0.02210
1479.41,0.02173
1456.26,0.02162
1433.12,0.02128
1409.97,0.02081
1386.82,0.02031
1363.68,0.02047
1340.53,0.02026
1317.39,0.01951
1294.24,0.01990
1271.09,0.02136
1247.95,0.02228
1224.8,0.02141
1201.66,0.02065
1178.51,0.02054
1155.36,0.01983
1132.22,0.02008
1109.07,0.02193
1085.93,0.02182
1062.78,0.02341
1039.64,0.02382
1016.49,0.02290
993.344,0.02400
970.198,0.02284
947.052,0.02252
923.906,0.02238
900.76,0.02217
877.614,0.02209
854.468,0.02127
831.323,0.02035
808.177,0.02167
785.031,0.02037
761.885,0.02066
738.739,0.02043
715.593,0.01893
692.447,0.01980
669.301,0.01923
646.156,0.01797
623.01,0.01804
599.864,0.02129

File: PEVA_0.18_IS_T_240809_R7.dpt
7497.33,0.04111
7474.19,0.02714
7451.04,0.03288
7427.9,0.02990
7404.75,0.03992
7381.6,0.03068
7358.46,0.03214
7335.31,0.03622
7312.17,0.04405
7289.02,0.03646
7265.87,0.04078
7242.73,0.03420
7219.58,0.02976
7196.44,0.02673
7173.29,0.03959
7150.15,0.03968
7127,0.03534
7103.85,0.03213
7080.71,0.03519
7057.56,0.02716
7034.42,0.03293
7011.27,0.03394
6988.12,0.03208
6964.98,0.03056
6941.83,0.03054
6918.69,0.03552
6895.54,0.02932
6872.39,0.02608
6849.25,0.03727
6826.1,0.02922
6802.96,0.03124
6779.81,0.03117
6756.67,0.03443
6733.52,0.03721
6710.37,0.03557
6687.23,0.03226
6664.08,0.03134
6640.94,0.03181
6617.79,0.02872
6594.64,0.02991
6571.5,0.02799
6548.35,0.03395
6525.21,0.03072
6502.06,0.03324
6478.92,0.03569
6455.77,0.03029
6432.62,0.03195
6409.48,0.02727
6386.33,0.03028
6363.19,0.03103
6340.04,0.03563
6316.89,0.03403
6293.75,0.03147
6270.6,0.03207
6247.46,0.02926
6224.31,0.03488
6201.16,0.03072
6178.02,0.03337
6154.87,0.03045
6131.73,0.03640
6108.58,0.03276
6085.44,0.02776
6062.29,0.03514
6039.14,0.03026
6016,0.03114
5992.85,0.03202
5969.71,0.02967
5946.56,0.03083
5923.41,0.03149
5900.27,0.02781
5877.12,0.03207
5853.98,0.03136
5830.83,0.03399
5807.68,0.02967
5784.54,0.03027
5761.39,0.03021
5738.25,0.03067
5715.1,0.02995
5691.96,0.03381
5668.81,0.03110
5645.66,0.03088
5622.52,0.03220
5599.37,0.03067
5576.23,0.03006
5553.08,0.03050
5529.93,0.02856
5506.79,0.03100
5483.64,0.03052
5460.5,0.02963
5437.35,0.02954
5414.21,0.03042
5391.06,0.03210
5367.91,0.03159
5344.77,0.03171
5321.62,0.03122
5298.48,0.02979
5275.33,0.03099
5252.18,0.02907
5229.04,0.03140
5205.89,0.03100
5182.75,0.03011
5159.6,0.02987
5136.45,0.03038
5113.31,0.03048
5090.16,0.02930
5067.02,0.02886
5043.87,0.03008
5020.73,0.03066
4997.58,0.03085
4974.43,0.03015
4951.29,0.03040
4928.14,0.02853
4905,0.02944
4881.85,0.02956
4858.7,0.03041
4835.56,0.02954
4812.41,0.02919
4789.27,0.03066
4766.12,0.02929
4742.97,0.03029
4719.83,0.03037
4696.68,0.03113
4673.54,0.02946
4650.39,0.02987
4627.25,0.02947
4604.1,0.02950
4580.95,0.02992
4557.81,0.02950
4534.66,0.02860
4511.52,0.02952
4488.37,0.03057
4465.22,0.03047
4442.08,0.03006
4418.93,0.02958
4395.79,0.02994
4372.64,0.02950
4349.49,0.02939
4326.35,0.02989
4303.2,0.03049
4280.06,0.02924
4256.91,0.03033
4233.77,0.02967
4210.62,0.02909
4187.47,0.02945
4164.33,0.03023
4141.18,0.02963
4118.04,0.02936
4094.89,0.03032
4071.74,0.02981
4048.6,0.03034
4025.45,0.02967
4002.31,0.02986
3979.16,0.02952
3956.02,0.03024
3932.87,0.03060
3909.72,0.02968
3886.58,0.03067
3863.43,0.02998
3840.29,0.03024
3817.14,0.03060
3793.99,0.02905
3770.85,0.03003
3747.7,0.02994
3724.56,0.02940
3701.41,0.02974
3678.26,0.02965
3655.12,0.02896
3631.97,0.02899
3608.83,0.02780
3585.68,0.02659
3562.54,0.02689
3539.39,0.02662
3516.24,0.02684
3493.1,0.02626
3469.95,0.02626
3446.81,0.02639
3423.66,0.02564
3400.51,0.02637
3377.37,0.02541
3354.22,0.02598
3331.08,0.02562
3307.93,0.02551
3284.78,0.02617
3261.64,0.02562
3238.49,0.02646
3215.35,0.02638
3192.2,0.02676
3169.06,0.02721
3145.91,0.02645
3122.76,0.02648
3099.62,0.02645
3076.47,0.02646
3053.33,0.02597
3030.18,0.02666
3007.03,0.02649
2983.89,0.02563
2960.74,0.02531
2937.6,0.02488
2914.45,0.02616
2891.31,0.02580
2868.16,0.02557
2845.01,0.02656
2821.87,0.02680
2798.72,0.02755
2775.58,0.02709
2752.43,0.02647
2729.28,0.02683
2706.14,0.02695
2682.99,0.02679
2659.85,0.02632
2636.7,0.02694
2613.55,0.02704
2590.41,0.02631
2567.26,0.02705
2544.12,0.02651
2520.97,0.02662
2497.83,0.02671
2474.68,0.02676
2451.53,0.02609
2428.39,0.02638
2405.24,0.02676
2382.1,0.02717
2358.95,0.02707
2335.8,0.02735
2312.66,0.02633
2289.51,0.02569
2266.37,0.02554
2243.22,0.02601
2220.07,0.02600
2196.93,0.02578
2173.78,0.02562
2150.64,0.02585
2127.49,0.02560
2104.35,0.02568
2081.2,0.02496
2058.05,0.02510
2034.91,0.02566
2011.76,0.02540
1988.62,0.02510
1965.47,0.02522
1942.32,0.02542
1919.18,0.02514
1896.03,0.02515
1872.89,0.02480
1849.74,0.02468
1826.6,0.02423
1803.45,0.02409
1780.3,0.02300
1757.16,0.02164
1734.01,0.02363
1710.87,0.02416
1687.72,0.02255
1664.57,0.02146
1641.43,0.02174
1618.28,0.02167
1595.14,0.02183
1571.99,0.02158
1548.84,0.02146
1525.7,0.02192
1502.55,0.02154
1479.41,0.02173
1456.26,0.02171
1433.12,0.02113
1409.97,0.02096
1386.82,0.02009
1363.68,0.02056
1340.53,0.02054
1317.39,0.01940
1294.24,0.02039
1271.09,0.02149
1247.95,0.02215
1224.8,0.02165
1201.66,0.02109
1178.51,0.01993
1155.36,0.02032
1132.22,0.01976
1109.07,0.02102
1085.93,0.02200
1062.78,0.02379
1039.64,0.02332
1016.49,0.02339
993.344,0.02387
970.198,0.02317
947.052,0.02296
923.906,0.02236
900.76,0.02189
877.614,0.02243
854.468,0.02173
831.323,0.02150
808.177,0.02155
785.031,0.02124
761.885,0.02067
738.739,0.01971
715.593,0.01981
692.447,0.01971
669.301,0.01899
646.156,0.01724
623.01,0.01789
599.864,0.01923