Folder: fsri_materials_database/01_Data/PEVA/FTIR/IS (part 20)

File: PEVA_0.26_IS_Trans_S_240819_R4.dpt
7496.91,0.97809
7473.76,0.99026
7450.62,0.98577
7427.47,0.98315
7404.33,0.97447
7381.18,0.96663
7358.04,0.97016
7334.89,0.97875
7311.75,0.97240
7288.61,0.96265
7265.46,0.97367
7242.32,0.95338
7219.17,0.95443
7196.03,0.95904
7172.88,0.96483
7149.74,0.95200
7126.59,0.95889
7103.45,0.95735
7080.3,0.97097
7057.16,0.95408
7034.02,0.96393
7010.87,0.95990
6987.73,0.96008
6964.58,0.95678
6941.44,0.97473
6918.29,0.96033
6895.15,0.97417
6872,0.96411
6848.86,0.97165
6825.71,0.96852
6802.57,0.96560
6779.43,0.97463
6756.28,0.97607
6733.14,0.97272
6709.99,0.97966
6686.85,0.97724
6663.7,0.97415
6640.56,0.98009
6617.41,0.97569
6594.27,0.97802
6571.12,0.98321
6547.98,0.98077
6524.84,0.98002
6501.69,0.98392
6478.55,0.97865
6455.4,0.98083
6432.26,0.98275
6409.11,0.98339
6385.97,0.97998
6362.82,0.97397
6339.68,0.97955
6316.53,0.98820
6293.39,0.98472
6270.24,0.98074
6247.1,0.98531
6223.96,0.97659
6200.81,0.98012
6177.67,0.97736
6154.52,0.97457
6131.38,0.97019
6108.23,0.96870
6085.09,0.96126
6061.94,0.95330
6038.8,0.93994
6015.65,0.92877
5992.51,0.94076
5969.37,0.94794
5946.22,0.93582
5923.08,0.91718
5899.93,0.89114
5876.79,0.84983
5853.64,0.81391
5830.5,0.76212
5807.35,0.79677
5784.21,0.84195
5761.06,0.86404
5737.92,0.85765
5714.78,0.85905
5691.63,0.86659
5668.49,0.88250
5645.34,0.89057
5622.2,0.90178
5599.05,0.91004
5575.91,0.91543
5552.76,0.92305
5529.62,0.92246
5506.47,0.92354
5483.33,0.92161
5460.19,0.91872
5437.04,0.92825
5413.9,0.92663
5390.75,0.93463
5367.61,0.94047
5344.46,0.93395
5321.32,0.94442
5298.17,0.94639
5275.03,0.94518
5251.88,0.94063
5228.74,0.94241
5205.6,0.94080
5182.45,0.94691
5159.31,0.94639
5136.16,0.95116
5113.02,0.94737
5089.87,0.94865
5066.73,0.94982
5043.58,0.95309
5020.44,0.95316
4997.29,0.95214
4974.15,0.95389
4951.01,0.95391
4927.86,0.95434
4904.72,0.95412
4881.57,0.95362
4858.43,0.95414
4835.28,0.95444
4812.14,0.95358
4788.99,0.94973
4765.85,0.94979
4742.7,0.94980
4719.56,0.93672
4696.42,0.92314
4673.27,0.91925
4650.13,0.92635
4626.98,0.91368
4603.84,0.93719
4580.69,0.92979
4557.55,0.93797
4534.4,0.93584
4511.26,0.92844
4488.11,0.90633
4464.97,0.88928
4441.83,0.83795
4418.68,0.73375
4395.54,0.65093
4372.39,0.56895
4349.25,0.43360
4326.1,0.39447
4302.96,0.50217
4279.81,0.49711
4256.67,0.51429
4233.52,0.50552
4210.38,0.49088
4187.24,0.53333
4164.09,0.52530
4140.95,0.59014
4117.8,0.61569
4094.66,0.57544
4071.51,0.56896
4048.37,0.65034
4025.22,0.66321
4002.08,0.68870
3978.93,0.72563
3955.79,0.74212
3932.65,0.74010
3909.5,0.74637
3886.36,0.74987
3863.21,0.74863
3840.07,0.74770
3816.92,0.76431
3793.78,0.79220
3770.63,0.79790
3747.49,0.78370
3724.34,0.80899
3701.2,0.79280
3678.06,0.70382
3654.91,0.72993
3631.77,0.72437
3608.62,0.68750
3585.48,0.65772
3562.33,0.61232
3539.19,0.58383
3516.04,0.56657
3492.9,0.51869
3469.75,0.45259
3446.61,0.38996
3423.47,0.30720
3400.32,0.40664
3377.18,0.49340
3354.03,0.53071
3330.89,0.51470
3307.74,0.36749
3284.6,0.47761
3261.45,0.58579
3238.31,0.59779
3215.16,0.58292
3192.02,0.56856
3168.87,0.57254
3145.73,0.56170
3122.59,0.51819
3099.44,0.43965
3076.3,0.35179
3053.15,0.28529
3030.01,0.25393
3006.86,0.08799
2983.72,0.00074
2960.57,0.00003
2937.43,0.00076
2914.28,0.00038
2891.14,0.00095
2868,0.00076
2844.85,0.00128
2821.71,0.06433
2798.56,0.22768
2775.42,0.36354
2752.27,0.38230
2729.13,0.35640
2705.98,0.46733
2682.84,0.48590
2659.69,0.50876
2636.55,0.52784
2613.41,0.51226
2590.26,0.51259
2567.12,0.52160
2543.97,0.54460
2520.83,0.57299
2497.68,0.62308
2474.54,0.64317
2451.39,0.65080
2428.25,0.61955
2405.1,0.57493
2381.96,0.53785
2358.82,0.54340
2335.67,0.62465
2312.53,0.67287
2289.38,0.65675
2266.24,0.65302
2243.09,0.65874
2219.95,0.66750
2196.8,0.70592
2173.66,0.73345
2150.51,0.72580
2127.37,0.71889
2104.23,0.71062
2081.08,0.69581
2057.94,0.69860
2034.79,0.71793
2011.65,0.73713
1988.5,0.70262
1965.36,0.64446
1942.21,0.54841
1919.07,0.66740
1895.92,0.68591
1872.78,0.69305
1849.64,0.63080
1826.49,0.44160
1803.35,0.45253
1780.2,0.31784
1757.06,0.09160
1733.91,0.00011
1710.77,0.00044
1687.62,0.05244
1664.48,0.19526
1641.33,0.20999
1618.19,0.32010
1595.05,0.37088
1571.9,0.17513
1548.76,0.28422
1525.61,0.26731
1502.47,0.08156
1479.32,0.04097
1456.18,0.00067
1433.03,0.00031
1409.89,0.00016
1386.74,0.00010
1363.6,0.00162
1340.46,0.00030
1317.31,0.00035
1294.17,0.00078
1271.02,0.00014
1247.88,0.00027
1224.73,0.00036
1201.59,0.00157
1178.44,0.01271
1155.3,0.00627
1132.15,0.00030
1109.01,0.00055
1085.87,0.00089
1062.72,0.01496
1039.58,0.02425
1016.43,0.00058
993.287,0.00219
970.142,0.00092
946.998,0.00040
923.853,0.00366
900.709,0.02785
877.564,0.00482
854.42,0.04169
831.275,0.03138
808.131,0.17189
784.986,0.10901
761.842,0.10872
738.697,0.00531
715.552,0.02317
692.408,0.00130
669.263,0.01273
646.119,0.00096
622.974,0.00148
599.83,0.00447

File: PEVA_0.26_IS_Trans_S_240819_R5.dpt
7496.91,0.92674
7473.76,0.95141
7450.62,0.91740
7427.47,0.91895
7404.33,0.91204
7381.18,0.90643
7358.04,0.91460
7334.89,0.90154
7311.75,0.90586
7288.61,0.90540
7265.46,0.90839
7242.32,0.89474
7219.17,0.89533
7196.03,0.89952
7172.88,0.91505
7149.74,0.90259
7126.59,0.89847
7103.45,0.89646
7080.3,0.91557
7057.16,0.90777
7034.02,0.90320
7010.87,0.91468
6987.73,0.90801
6964.58,0.90722
6941.44,0.90883
6918.29,0.90209
6895.15,0.90803
6872,0.90051
6848.86,0.91275
6825.71,0.91701
6802.57,0.91526
6779.43,0.91909
6756.28,0.92433
6733.14,0.91931
6709.99,0.91448
6686.85,0.92364
6663.7,0.91714
6640.56,0.92897
6617.41,0.91922
6594.27,0.92168
6571.12,0.91999
6547.98,0.92051
6524.84,0.92539
6501.69,0.92805
6478.55,0.91649
6455.4,0.92140
6432.26,0.92418
6409.11,0.92723
6385.97,0.92609
6362.82,0.92475
6339.68,0.92877
6316.53,0.92161
6293.39,0.92408
6270.24,0.92004
6247.1,0.92376
6223.96,0.92134
6200.81,0.91701
6177.67,0.91859
6154.52,0.92149
6131.38,0.92140
6108.23,0.91354
6085.09,0.90915
6061.94,0.89752
6038.8,0.88340
6015.65,0.87125
5992.51,0.88970
5969.37,0.89599
5946.22,0.88808
5923.08,0.86363
5899.93,0.84013
5876.79,0.80593
5853.64,0.76605
5830.5,0.72025
5807.35,0.74933
5784.21,0.79761
5761.06,0.81380
5737.92,0.80879
5714.78,0.80931
5691.63,0.81435
5668.49,0.83341
5645.34,0.84010
5622.2,0.85150
5599.05,0.85657
5575.91,0.86538
5552.76,0.86655
5529.62,0.86868
5506.47,0.86657
5483.33,0.87139
5460.19,0.85780
5437.04,0.86387
5413.9,0.85627
5390.75,0.87265
5367.61,0.88323
5344.46,0.86161
5321.32,0.89141
5298.17,0.88928
5275.03,0.89198
5251.88,0.88056
5228.74,0.88181
5205.6,0.87501
5182.45,0.88903
5159.31,0.89021
5136.16,0.89237
5113.02,0.89370
5089.87,0.89406
5066.73,0.89721
5043.58,0.89746
5020.44,0.90032
4997.29,0.89929
4974.15,0.90137
4951.01,0.90146
4927.86,0.90190
4904.72,0.90146
4881.57,0.89977
4858.43,0.90020
4835.28,0.90037
4812.14,0.89972
4788.99,0.89732
4765.85,0.89900
4742.7,0.89870
4719.56,0.88446
4696.42,0.86895
4673.27,0.86815
4650.13,0.87517
4626.98,0.86288
4603.84,0.88240
4580.69,0.87872
4557.55,0.88499
4534.4,0.88356
4511.26,0.87500
4488.11,0.85583
4464.97,0.83997
4441.83,0.79096
4418.68,0.69354
4395.54,0.61461
4372.39,0.53797
4349.25,0.40966
4326.1,0.37289
4302.96,0.47510
4279.81,0.46950
4256.67,0.48588
4233.52,0.47942
4210.38,0.46402
4187.24,0.50359
4164.09,0.49675
4140.95,0.55786
4117.8,0.58241
4094.66,0.54433
4071.51,0.53742
4048.37,0.61408
4025.22,0.62604
4002.08,0.64978
3978.93,0.68374
3955.79,0.69549
3932.65,0.68614
3909.5,0.70177
3886.36,0.69091
3863.21,0.67830
3840.07,0.66473
3816.92,0.69015
3793.78,0.73848
3770.63,0.73465
3747.49,0.68764
3724.34,0.71940
3701.2,0.72120
3678.06,0.63238
3654.91,0.66856
3631.77,0.65227
3608.62,0.62223
3585.48,0.59963
3562.33,0.56462
3539.19,0.54647
3516.04,0.53195
3492.9,0.48777
3469.75,0.42609
3446.61,0.36490
3423.47,0.28820
3400.32,0.38192
3377.18,0.46509
3354.03,0.49846
3330.89,0.48490
3307.74,0.34527
3284.6,0.44934
3261.45,0.55061
3238.31,0.56133
3215.16,0.54673
3192.02,0.53561
3168.87,0.53901
3145.73,0.52787
3122.59,0.48616
3099.44,0.41271
3076.3,0.33118
3053.15,0.26821
3030.01,0.23804
3006.86,0.08271
2983.72,0.00041
2960.57,0.00065
2937.43,0.00049
2914.28,0.00055
2891.14,0.00074
2868,0.00020
2844.85,0.00075
2821.71,0.06095
2798.56,0.21442
2775.42,0.34237
2752.27,0.36004
2729.13,0.33599
2705.98,0.43949
2682.84,0.45708
2659.69,0.47868
2636.55,0.49662
2613.41,0.48195
2590.26,0.48198
2567.12,0.49123
2543.97,0.51205
2520.83,0.53870
2497.68,0.58538
2474.54,0.60494
2451.39,0.61257
2428.25,0.58271
2405.1,0.54007
2381.96,0.47940
2358.82,0.35681
2335.67,0.45037
2312.53,0.55639
2289.38,0.60383
2266.24,0.60622
2243.09,0.61711
2219.95,0.62686
2196.8,0.66322
2173.66,0.68860
2150.51,0.68061
2127.37,0.67396
2104.23,0.66683
2081.08,0.65297
2057.94,0.65499
2034.79,0.67285
2011.65,0.69006
1988.5,0.65531
1965.36,0.60102
1942.21,0.50872
1919.07,0.61886
1895.92,0.63881
1872.78,0.64546
1849.64,0.58658
1826.49,0.40548
1803.35,0.41834
1780.2,0.29280
1757.06,0.08399
1733.91,0.00025
1710.77,0.00045
1687.62,0.04727
1664.48,0.17855
1641.33,0.19271
1618.19,0.29042
1595.05,0.34298
1571.9,0.15925
1548.76,0.25756
1525.61,0.23533
1502.47,0.07426
1479.32,0.03799
1456.18,0.00050
1433.03,0.00026
1409.89,0.00006
1386.74,0.00036
1363.6,0.00117
1340.46,0.00033
1317.31,0.00050
1294.17,0.00046
1271.02,0.00021
1247.88,0.00037
1224.73,0.00014
1201.59,0.00143
1178.44,0.01190
1155.3,0.00547
1132.15,0.00019
1109.01,0.00028
1085.87,0.00044
1062.72,0.01372
1039.58,0.02248
1016.43,0.00029
993.287,0.00158
970.142,0.00056
946.998,0.00069
923.853,0.00356
900.709,0.02582
877.564,0.00387
854.42,0.03875
831.275,0.02944
808.131,0.16086
784.986,0.10191
761.842,0.10127
738.697,0.00414
715.552,0.02227
692.408,0.00107
669.263,0.01089
646.119,0.00087
622.974,0.00137
599.83,0.00332

File: PEVA_0.26_IS_Trans_S_240819_R6.dpt
7496.91,0.93550
7473.76,0.92449
7450.62,0.93765
7427.47,0.94650
7404.33,0.93460
7381.18,0.93471
7358.04,0.93518
7334.89,0.91917
7311.75,0.91403
7288.61,0.93305
7265.46,0.92401
7242.32,0.91166
7219.17,0.90573
7196.03,0.92202
7172.88,0.91739
7149.74,0.92270
7126.59,0.92430
7103.45,0.90603
7080.3,0.91738
7057.16,0.91322
7034.02,0.91998
7010.87,0.92450
6987.73,0.91016
6964.58,0.92768
6941.44,0.92538
6918.29,0.92141
6895.15,0.91872
6872,0.92977
6848.86,0.92471
6825.71,0.92791
6802.57,0.92743
6779.43,0.92880
6756.28,0.92255
6733.14,0.92811
6709.99,0.93175
6686.85,0.93718
6663.7,0.93048
6640.56,0.93750
6617.41,0.93463
6594.27,0.93218
6571.12,0.92843
6547.98,0.93167
6524.84,0.93907
6501.69,0.93101
6478.55,0.94003
6455.4,0.93992
6432.26,0.93276
6409.11,0.93359
6385.97,0.93056
6362.82,0.93278
6339.68,0.93581
6316.53,0.94122
6293.39,0.93604
6270.24,0.93554
6247.1,0.93379
6223.96,0.93530
6200.81,0.93020
6177.67,0.92941
6154.52,0.93159
6131.38,0.92356
6108.23,0.92864
6085.09,0.92098
6061.94,0.90763
6038.8,0.89454
6015.65,0.88404
5992.51,0.89525
5969.37,0.90399
5946.22,0.89523
5923.08,0.87018
5899.93,0.85003
5876.79,0.81205
5853.64,0.77334
5830.5,0.72352
5807.35,0.76091
5784.21,0.80566
5761.06,0.82161
5737.92,0.81585
5714.78,0.81671
5691.63,0.82287
5668.49,0.83930
5645.34,0.84850
5622.2,0.85717
5599.05,0.86489
5575.91,0.87035
5552.76,0.87369
5529.62,0.87879
5506.47,0.87608
5483.33,0.87674
5460.19,0.87090
5437.04,0.87766
5413.9,0.87849
5390.75,0.88626
5367.61,0.89368
5344.46,0.88098
5321.32,0.89906
5298.17,0.89836
5275.03,0.89982
5251.88,0.89426
5228.74,0.89577
5205.6,0.88985
5182.45,0.89776
5159.31,0.90011
5136.16,0.90239
5113.02,0.90091
5089.87,0.90295
5066.73,0.90583
5043.58,0.90715
5020.44,0.90646
4997.29,0.90765
4974.15,0.90718
4951.01,0.90927
4927.86,0.90748
4904.72,0.90855
4881.57,0.90746
4858.43,0.90693
4835.28,0.90866
4812.14,0.90623
4788.99,0.90321
4765.85,0.90503
4742.7,0.90457
4719.56,0.89275
4696.42,0.87786
4673.27,0.87551
4650.13,0.88097
4626.98,0.86966
4603.84,0.89000
4580.69,0.88553
4557.55,0.89330
4534.4,0.88932
4511.26,0.88341
4488.11,0.86202
4464.97,0.84597
4441.83,0.79718
4418.68,0.69939
4395.54,0.61996
4372.39,0.54212
4349.25,0.41329
4326.1,0.37564
4302.96,0.47912
4279.81,0.47256
4256.67,0.48964
4233.52,0.48239
4210.38,0.46778
4187.24,0.50765
4164.09,0.50126
4140.95,0.56214
4117.8,0.58655
4094.66,0.54795
4071.51,0.54125
4048.37,0.61955
4025.22,0.63173
4002.08,0.65498
3978.93,0.68985
3955.79,0.70477
3932.65,0.69994
3909.5,0.70894
3886.36,0.70848
3863.21,0.70226
3840.07,0.69888
3816.92,0.71802
3793.78,0.75142
3770.63,0.75296
3747.49,0.72742
3724.34,0.75810
3701.2,0.74739
3678.06,0.65749
3654.91,0.68564
3631.77,0.67836
3608.62,0.64440
3585.48,0.61725
3562.33,0.57587
3539.19,0.55137
3516.04,0.53457
3492.9,0.48894
3469.75,0.42727
3446.61,0.36685
3423.47,0.28991
3400.32,0.38369
3377.18,0.46768
3354.03,0.50286
3330.89,0.48778
3307.74,0.34864
3284.6,0.45382
3261.45,0.55551
3238.31,0.56645
3215.16,0.55243
3192.02,0.53991
3168.87,0.54365
3145.73,0.53261
3122.59,0.49014
3099.44,0.41717
3076.3,0.33429
3053.15,0.27062
3030.01,0.24049
3006.86,0.08344
2983.72,0.00022
2960.57,0.00019
2937.43,0.00043
2914.28,0.00072
2891.14,0.00031
2868,0.00023
2844.85,0.00126
2821.71,0.06116
2798.56,0.21611
2775.42,0.34480
2752.27,0.36274
2729.13,0.33842
2705.98,0.44267
2682.84,0.46035
2659.69,0.48238
2636.55,0.50069
2613.41,0.48604
2590.26,0.48677
2567.12,0.49473
2543.97,0.51578
2520.83,0.54297
2497.68,0.58988
2474.54,0.60977
2451.39,0.61691
2428.25,0.58712
2405.1,0.54455
2381.96,0.50569
2358.82,0.48961
2335.67,0.56982
2312.53,0.62564
2289.38,0.61965
2266.24,0.61628
2243.09,0.62309
2219.95,0.63204
2196.8,0.66868
2173.66,0.69411
2150.51,0.68585
2127.37,0.67941
2104.23,0.67190
2081.08,0.65801
2057.94,0.66031
2034.79,0.67788
2011.65,0.69571
1988.5,0.66259
1965.36,0.60761
1942.21,0.51680
1919.07,0.62824
1895.92,0.64643
1872.78,0.65282
1849.64,0.59394
1826.49,0.41419
1803.35,0.42561
1780.2,0.29843
1757.06,0.08593
1733.91,0.00033
1710.77,0.00023
1687.62,0.04850
1664.48,0.18269
1641.33,0.19701
1618.19,0.29860
1595.05,0.34861
1571.9,0.16390
1548.76,0.26570
1525.61,0.24766
1502.47,0.07659
1479.32,0.03859
1456.18,0.00044
1433.03,0.00052
1409.89,0.00011
1386.74,0.00020
1363.6,0.00141
1340.46,0.00031
1317.31,0.00052
1294.17,0.00014
1271.02,0.00021
1247.88,0.00019
1224.73,0.00023
1201.59,0.00132
1178.44,0.01193
1155.3,0.00569
1132.15,0.00057
1109.01,0.00088
1085.87,0.00085
1062.72,0.01425
1039.58,0.02298
1016.43,0.00119
993.287,0.00205
970.142,0.00019
946.998,0.00041
923.853,0.00378
900.709,0.02601
877.564,0.00464
854.42,0.04011
831.275,0.02878
808.131,0.16205
784.986,0.10262
761.842,0.10223
738.697,0.00468
715.552,0.02247
692.408,0.00073
669.263,0.01321
646.119,0.00065
622.974,0.00102
599.83,0.00528

File: PEVA_0.26_IS_Trans_S_240819_R7.dpt
7496.91,0.91655
7473.76,0.93322
7450.62,0.93345
7427.47,0.94000
7404.33,0.92571
7381.18,0.92171
7358.04,0.92119
7334.89,0.93042
7311.75,0.91075
7288.61,0.92053
7265.46,0.91260
7242.32,0.89087
7219.17,0.90559
7196.03,0.90133
7172.88,0.92174
7149.74,0.91530
7126.59,0.90536
7103.45,0.90893
7080.3,0.91134
7057.16,0.91166
7034.02,0.91903
7010.87,0.91426
6987.73,0.90724
6964.58,0.91253
6941.44,0.91967
6918.29,0.91117
6895.15,0.92228
6872,0.91978
6848.86,0.92717
6825.71,0.92725
6802.57,0.92622
6779.43,0.92135
6756.28,0.92113
6733.14,0.91786
6709.99,0.93026
6686.85,0.92417
6663.7,0.92609
6640.56,0.92795
6617.41,0.92634
6594.27,0.93232
6571.12,0.92782
6547.98,0.92605
6524.84,0.93225
6501.69,0.92788
6478.55,0.92507
6455.4,0.93444
6432.26,0.93214
6409.11,0.92896
6385.97,0.93178
6362.82,0.92687
6339.68,0.92921
6316.53,0.92773
6293.39,0.92814
6270.24,0.92929
6247.1,0.92511
6223.96,0.92907
6200.81,0.92731
6177.67,0.92578
6154.52,0.92484
6131.38,0.92266
6108.23,0.92040
6085.09,0.91126
6061.94,0.90466
6038.8,0.89096
6015.65,0.87457
5992.51,0.89205
5969.37,0.90127
5946.22,0.89219
5923.08,0.87012
5899.93,0.84217
5876.79,0.80923
5853.64,0.77364
5830.5,0.72488
5807.35,0.75508
5784.21,0.80207
5761.06,0.81763
5737.92,0.81229
5714.78,0.81703
5691.63,0.82167
5668.49,0.83588
5645.34,0.84391
5622.2,0.85692
5599.05,0.86217
5575.91,0.86690
5552.76,0.87301
5529.62,0.87313
5506.47,0.87167
5483.33,0.87924
5460.19,0.86816
5437.04,0.87579
5413.9,0.87143
5390.75,0.88241
5367.61,0.88999
5344.46,0.87822
5321.32,0.89648
5298.17,0.89610
5275.03,0.89518
5251.88,0.89149
5228.74,0.89278
5205.6,0.88608
5182.45,0.89605
5159.31,0.89734
5136.16,0.89857
5113.02,0.89672
5089.87,0.89801
5066.73,0.90153
5043.58,0.90289
5020.44,0.90268
4997.29,0.90444
4974.15,0.90436
4951.01,0.90403
4927.86,0.90502
4904.72,0.90395
4881.57,0.90470
4858.43,0.90181
4835.28,0.90249
4812.14,0.90527
4788.99,0.90015
4765.85,0.90265
4742.7,0.90070
4719.56,0.88816
4696.42,0.87508
4673.27,0.87108
4650.13,0.87826
4626.98,0.86564
4603.84,0.88682
4580.69,0.88318
4557.55,0.88917
4534.4,0.88651
4511.26,0.87991
4488.11,0.85920
4464.97,0.84279
4441.83,0.79427
4418.68,0.69608
4395.54,0.61683
4372.39,0.54074
4349.25,0.41104
4326.1,0.37460
4302.96,0.47828
4279.81,0.47078
4256.67,0.48852
4233.52,0.48041
4210.38,0.46610
4187.24,0.50631
4164.09,0.49928
4140.95,0.56039
4117.8,0.58521
4094.66,0.54616
4071.51,0.53956
4048.37,0.61684
4025.22,0.62924
4002.08,0.65304
3978.93,0.68711
3955.79,0.70306
3932.65,0.69703
3909.5,0.70664
3886.36,0.70576
3863.21,0.70032
3840.07,0.69610
3816.92,0.71436
3793.78,0.74786
3770.63,0.74866
3747.49,0.72385
3724.34,0.74886
3701.2,0.73900
3678.06,0.65428
3654.91,0.68359
3631.77,0.67303
3608.62,0.64015
3585.48,0.61384
3562.33,0.57312
3539.19,0.55049
3516.04,0.53398
3492.9,0.48789
3469.75,0.42584
3446.61,0.36579
3423.47,0.28898
3400.32,0.38279
3377.18,0.46647
3354.03,0.50169
3330.89,0.48696
3307.74,0.34816
3284.6,0.45226
3261.45,0.55345
3238.31,0.56475
3215.16,0.55178
3192.02,0.53805
3168.87,0.54204
3145.73,0.53074
3122.59,0.49007
3099.44,0.41643
3076.3,0.33395
3053.15,0.27050
3030.01,0.24036
3006.86,0.08354
2983.72,0.00034
2960.57,0.00034
2937.43,0.00017
2914.28,0.00072
2891.14,0.00059
2868,0.00074
2844.85,0.00099
2821.71,0.06124
2798.56,0.21599
2775.42,0.34427
2752.27,0.36206
2729.13,0.33759
2705.98,0.44206
2682.84,0.46061
2659.69,0.48152
2636.55,0.49992
2613.41,0.48480
2590.26,0.48567
2567.12,0.49411
2543.97,0.51538
2520.83,0.54207
2497.68,0.58902
2474.54,0.60872
2451.39,0.61539
2428.25,0.58593
2405.1,0.54336
2381.96,0.49360
2358.82,0.41273
2335.67,0.50262
2312.53,0.58925
2289.38,0.61377
2266.24,0.61343
2243.09,0.62171
2219.95,0.63064
2196.8,0.66748
2173.66,0.69345
2150.51,0.68537
2127.37,0.67836
2104.23,0.67076
2081.08,0.65655
2057.94,0.65945
2034.79,0.67759
2011.65,0.69560
1988.5,0.66172
1965.36,0.60679
1942.21,0.51594
1919.07,0.62744
1895.92,0.64557
1872.78,0.65208
1849.64,0.59354
1826.49,0.41391
1803.35,0.42520
1780.2,0.29865
1757.06,0.08645
1733.91,0.00084
1710.77,0.00024
1687.62,0.04873
1664.48,0.18257
1641.33,0.19695
1618.19,0.29837
1595.05,0.34835
1571.9,0.16338
1548.76,0.26546
1525.61,0.24701
1502.47,0.07719
1479.32,0.03870
1456.18,0.00014
1433.03,0.00029
1409.89,0.00024
1386.74,0.00043
1363.6,0.00153
1340.46,0.00026
1317.31,0.00031
1294.17,0.00022
1271.02,0.00035
1247.88,0.00040
1224.73,0.00076
1201.59,0.00152
1178.44,0.01171
1155.3,0.00611
1132.15,0.00022
1109.01,0.00040
1085.87,0.00076
1062.72,0.01435
1039.58,0.02313
1016.43,0.00070
993.287,0.00216
970.142,0.00036
946.998,0.00059
923.853,0.00361
900.709,0.02634
877.564,0.00493
854.42,0.03948
831.275,0.02932
808.131,0.16160
784.986,0.10189
761.842,0.10186
738.697,0.00592
715.552,0.02265
692.408,0.00050
669.263,0.01254
646.119,0.00174
622.974,0.00081
599.83,0.00470

File: PEVA_0.26_IS_Trans_S_240819_R8.dpt
7496.91,0.93933
7473.76,0.93787
7450.62,0.94432
7427.47,0.92305
7404.33,0.93847
7381.18,0.93367
7358.04,0.94862
7334.89,0.93826
7311.75,0.92750
7288.61,0.92234
7265.46,0.90692
7242.32,0.92246
7219.17,0.92455
7196.03,0.91211
7172.88,0.92939
7149.74,0.90667
7126.59,0.92331
7103.45,0.90839
7080.3,0.91131
7057.16,0.91443
7034.02,0.91551
7010.87,0.91570
6987.73,0.91909
6964.58,0.91847
6941.44,0.91929
6918.29,0.91376
6895.15,0.91237
6872,0.92241
6848.86,0.92978
6825.71,0.93045
6802.57,0.91623
6779.43,0.92013
6756.28,0.93317
6733.14,0.93773
6709.99,0.92943
6686.85,0.93049
6663.7,0.92915
6640.56,0.92682
6617.41,0.92246
6594.27,0.93253
6571.12,0.93283
6547.98,0.92631
6524.84,0.93676
6501.69,0.93017
6478.55,0.93366
6455.4,0.93209
6432.26,0.92436
6409.11,0.93528
6385.97,0.92840
6362.82,0.93424
6339.68,0.93157
6316.53,0.93233
6293.39,0.92919
6270.24,0.92814
6247.1,0.92936
6223.96,0.93551
6200.81,0.93082
6177.67,0.93007
6154.52,0.92527
6131.38,0.91866
6108.23,0.92393
6085.09,0.91305
6061.94,0.90679
6038.8,0.89449
6015.65,0.87993
5992.51,0.89077
5969.37,0.90006
5946.22,0.89469
5923.08,0.87167
5899.93,0.84403
5876.79,0.81044
5853.64,0.77239
5830.5,0.72660
5807.35,0.75541
5784.21,0.80226
5761.06,0.82222
5737.92,0.81357
5714.78,0.81691
5691.63,0.82118
5668.49,0.83534
5645.34,0.84732
5622.2,0.85594
5599.05,0.86150
5575.91,0.87121
5552.76,0.87687
5529.62,0.87850
5506.47,0.87416
5483.33,0.87514
5460.19,0.87439
5437.04,0.87808
5413.9,0.87525
5390.75,0.88745
5367.61,0.89209
5344.46,0.88356
5321.32,0.89618
5298.17,0.89896
5275.03,0.90012
5251.88,0.89364
5228.74,0.89530
5205.6,0.89374
5182.45,0.89915
5159.31,0.89702
5136.16,0.89950
5113.02,0.89840
5089.87,0.90162
5066.73,0.90297
5043.58,0.90546
5020.44,0.90468
4997.29,0.90505
4974.15,0.90666
4951.01,0.90538
4927.86,0.90514
4904.72,0.90483
4881.57,0.90537
4858.43,0.90590
4835.28,0.90631
4812.14,0.90433
4788.99,0.90213
4765.85,0.90409
4742.7,0.90232
4719.56,0.89065
4696.42,0.87673
4673.27,0.87491
4650.13,0.87994
4626.98,0.86805
4603.84,0.88785
4580.69,0.88416
4557.55,0.89080
4534.4,0.88832
4511.26,0.88201
4488.11,0.85930
4464.97,0.84530
4441.83,0.79403
4418.68,0.69690
4395.54,0.61913
4372.39,0.54075
4349.25,0.41188
4326.1,0.37471
4302.96,0.47789
4279.81,0.47204
4256.67,0.48896
4233.52,0.48149
4210.38,0.46750
4187.24,0.50693
4164.09,0.49983
4140.95,0.56114
4117.8,0.58492
4094.66,0.54697
4071.51,0.54003
4048.37,0.61869
4025.22,0.62996
4002.08,0.65322
3978.93,0.68923
3955.79,0.70430
3932.65,0.70083
3909.5,0.70793
3886.36,0.70994
3863.21,0.70718
3840.07,0.70443
3816.92,0.72047
3793.78,0.75014
3770.63,0.75375
3747.49,0.73362
3724.34,0.75888
3701.2,0.74694
3678.06,0.66216
3654.91,0.68858
3631.77,0.68006
3608.62,0.64651
3585.48,0.61951
3562.33,0.57724
3539.19,0.55127
3516.04,0.53414
3492.9,0.48922
3469.75,0.42602
3446.61,0.36649
3423.47,0.28958
3400.32,0.38222
3377.18,0.46572
3354.03,0.50074
3330.89,0.48582
3307.74,0.34762
3284.6,0.45083
3261.45,0.55308
3238.31,0.56412
3215.16,0.55127
3192.02,0.53724
3168.87,0.54178
3145.73,0.53072
3122.59,0.48994
3099.44,0.41531
3076.3,0.33357
3053.15,0.27020
3030.01,0.24018
3006.86,0.08294
2983.72,0.00120
2960.57,0.00060
2937.43,0.00089
2914.28,0.00043
2891.14,0.00063
2868,0.00062
2844.85,0.00171
2821.71,0.06120
2798.56,0.21548
2775.42,0.34370
2752.27,0.36174
2729.13,0.33771
2705.98,0.44209
2682.84,0.45940
2659.69,0.48076
2636.55,0.49932
2613.41,0.48486
2590.26,0.48502
2567.12,0.49415
2543.97,0.51496
2520.83,0.54199
2497.68,0.58931
2474.54,0.60931
2451.39,0.61603
2428.25,0.58622
2405.1,0.54391
2381.96,0.50210
2358.82,0.46534
2335.67,0.54955
2312.53,0.61465
2289.38,0.61717
2266.24,0.61543
2243.09,0.62263
2219.95,0.63152
2196.8,0.66800
2173.66,0.69383
2150.51,0.68578
2127.37,0.67872
2104.23,0.67156
2081.08,0.65755
2057.94,0.66044
2034.79,0.67812
2011.65,0.69575
1988.5,0.66270
1965.36,0.60814
1942.21,0.51755
1919.07,0.62965
1895.92,0.64699
1872.78,0.65344
1849.64,0.59462
1826.49,0.41544
1803.35,0.42628
1780.2,0.29889
1757.06,0.08603
1733.91,0.00052
1710.77,0.00065
1687.62,0.04944
1664.48,0.18325
1641.33,0.19668
1618.19,0.29967
1595.05,0.34810
1571.9,0.16387
1548.76,0.26552
1525.61,0.24866
1502.47,0.07698
1479.32,0.03889
1456.18,0.00080
1433.03,0.00081
1409.89,0.00058
1386.74,0.00079
1363.6,0.00225
1340.46,0.00089
1317.31,0.00060
1294.17,0.00060
1271.02,0.00067
1247.88,0.00068
1224.73,0.00100
1201.59,0.00206
1178.44,0.01195
1155.3,0.00618
1132.15,0.00040
1109.01,0.00061
1085.87,0.00058
1062.72,0.01429
1039.58,0.02305
1016.43,0.00169
993.287,0.00236
970.142,0.00102
946.998,0.00109
923.853,0.00473
900.709,0.02625
877.564,0.00519
854.42,0.03987
831.275,0.02995
808.131,0.16210
784.986,0.10255
761.842,0.10224
738.697,0.00570
715.552,0.02291
692.408,0.00080
669.263,0.01289
646.119,0.00089
622.974,0.00144
599.83,0.00600