Folder: fsri_materials_database/01_Data/PEVA/FTIR/IS (part 13)

File: PEVA_0.18_IS_Trans_S_240819_R5.dpt
7496.91,0.92375
7473.76,0.93001
7450.62,0.91342
7427.47,0.92738
7404.33,0.91198
7381.18,0.93598
7358.04,0.91439
7334.89,0.92384
7311.75,0.90823
7288.61,0.91422
7265.46,0.91853
7242.32,0.90335
7219.17,0.90751
7196.03,0.90674
7172.88,0.92410
7149.74,0.91593
7126.59,0.92013
7103.45,0.91691
7080.3,0.92474
7057.16,0.90613
7034.02,0.90358
7010.87,0.90774
6987.73,0.92007
6964.58,0.92420
6941.44,0.91291
6918.29,0.91565
6895.15,0.91804
6872,0.92362
6848.86,0.91891
6825.71,0.92083
6802.57,0.91928
6779.43,0.92475
6756.28,0.93123
6733.14,0.93278
6709.99,0.93233
6686.85,0.93065
6663.7,0.93028
6640.56,0.92894
6617.41,0.92902
6594.27,0.92812
6571.12,0.92355
6547.98,0.92774
6524.84,0.92529
6501.69,0.93191
6478.55,0.92791
6455.4,0.93216
6432.26,0.92288
6409.11,0.92750
6385.97,0.93387
6362.82,0.92876
6339.68,0.93199
6316.53,0.93003
6293.39,0.93171
6270.24,0.92943
6247.1,0.93114
6223.96,0.92868
6200.81,0.92462
6177.67,0.92701
6154.52,0.92937
6131.38,0.92968
6108.23,0.92125
6085.09,0.92042
6061.94,0.91879
6038.8,0.92351
6015.65,0.92084
5992.51,0.91136
5969.37,0.90993
5946.22,0.90677
5923.08,0.90279
5899.93,0.89717
5876.79,0.88352
5853.64,0.84970
5830.5,0.81696
5807.35,0.78293
5784.21,0.72578
5761.06,0.77253
5737.92,0.83515
5714.78,0.85200
5691.63,0.83051
5668.49,0.80773
5645.34,0.84272
5622.2,0.85873
5599.05,0.86679
5575.91,0.86729
5552.76,0.86374
5529.62,0.86714
5506.47,0.86202
5483.33,0.86810
5460.19,0.86231
5437.04,0.87140
5413.9,0.86317
5390.75,0.88140
5367.61,0.88638
5344.46,0.87205
5321.32,0.89187
5298.17,0.89329
5275.03,0.89408
5251.88,0.88710
5228.74,0.88783
5205.6,0.88183
5182.45,0.89203
5159.31,0.89247
5136.16,0.89583
5113.02,0.89769
5089.87,0.89842
5066.73,0.89681
5043.58,0.90062
5020.44,0.89942
4997.29,0.89908
4974.15,0.89599
4951.01,0.89881
4927.86,0.90000
4904.72,0.90102
4881.57,0.90048
4858.43,0.90079
4835.28,0.90338
4812.14,0.90329
4788.99,0.90579
4765.85,0.90371
4742.7,0.90550
4719.56,0.90234
4696.42,0.90087
4673.27,0.89472
4650.13,0.90279
4626.98,0.90595
4603.84,0.90492
4580.69,0.90428
4557.55,0.90217
4534.4,0.89844
4511.26,0.89289
4488.11,0.88020
4464.97,0.86393
4441.83,0.83060
4418.68,0.80052
4395.54,0.74824
4372.39,0.66583
4349.25,0.50848
4326.1,0.27863
4302.96,0.59231
4279.81,0.57226
4256.67,0.38347
4233.52,0.53046
4210.38,0.50084
4187.24,0.44817
4164.09,0.46350
4140.95,0.47969
4117.8,0.49645
4094.66,0.50664
4071.51,0.58118
4048.37,0.61087
4025.22,0.62930
4002.08,0.68515
3978.93,0.67869
3955.79,0.69661
3932.65,0.68438
3909.5,0.69131
3886.36,0.68430
3863.21,0.68788
3840.07,0.68320
3816.92,0.69673
3793.78,0.74356
3770.63,0.74638
3747.49,0.71747
3724.34,0.73824
3701.2,0.74309
3678.06,0.71084
3654.91,0.69965
3631.77,0.69942
3608.62,0.65464
3585.48,0.76318
3562.33,0.79184
3539.19,0.81491
3516.04,0.82030
3492.9,0.81108
3469.75,0.72066
3446.61,0.68926
3423.47,0.78863
3400.32,0.80310
3377.18,0.79181
3354.03,0.80164
3330.89,0.81274
3307.74,0.81578
3284.6,0.81504
3261.45,0.81015
3238.31,0.80157
3215.16,0.78443
3192.02,0.76305
3168.87,0.74277
3145.73,0.71800
3122.59,0.67545
3099.44,0.58271
3076.3,0.45839
3053.15,0.36278
3030.01,0.23029
3006.86,0.14186
2983.72,0.03309
2960.57,0.00046
2937.43,0.00051
2914.28,0.00069
2891.14,0.00071
2868,0.00044
2844.85,0.00085
2821.71,0.00871
2798.56,0.07964
2775.42,0.21084
2752.27,0.27227
2729.13,0.29240
2705.98,0.34394
2682.84,0.31466
2659.69,0.31996
2636.55,0.34326
2613.41,0.43173
2590.26,0.51571
2567.12,0.60176
2543.97,0.64997
2520.83,0.67327
2497.68,0.69961
2474.54,0.68608
2451.39,0.74286
2428.25,0.75143
2405.1,0.74007
2381.96,0.72952
2358.82,0.61706
2335.67,0.59349
2312.53,0.64924
2289.38,0.71562
2266.24,0.74193
2243.09,0.76048
2219.95,0.78951
2196.8,0.77407
2173.66,0.74586
2150.51,0.73630
2127.37,0.78185
2104.23,0.79402
2081.08,0.78856
2057.94,0.76759
2034.79,0.72434
2011.65,0.72654
1988.5,0.78917
1965.36,0.78658
1942.21,0.77051
1919.07,0.75335
1895.92,0.70306
1872.78,0.69808
1849.64,0.69348
1826.49,0.63167
1803.35,0.54569
1780.2,0.38312
1757.06,0.04998
1733.91,0.00098
1710.77,0.15331
1687.62,0.34211
1664.48,0.52372
1641.33,0.55029
1618.19,0.63685
1595.05,0.65052
1571.9,0.61248
1548.76,0.57539
1525.61,0.50745
1502.47,0.42861
1479.32,0.10989
1456.18,0.00065
1433.03,0.02338
1409.89,0.26596
1386.74,0.07651
1363.6,0.00256
1340.46,0.21905
1317.31,0.24308
1294.17,0.12642
1271.02,0.01602
1247.88,0.00064
1224.73,0.00016
1201.59,0.08979
1178.44,0.20668
1155.3,0.17845
1132.15,0.12180
1109.01,0.15665
1085.87,0.12592
1062.72,0.07547
1039.58,0.02500
1016.43,0.00206
993.287,0.20668
970.142,0.18190
946.998,0.17240
923.853,0.38449
900.709,0.48251
877.564,0.49978
854.42,0.52790
831.275,0.59950
808.131,0.58463
784.986,0.62377
761.842,0.56337
738.697,0.30638
715.552,0.05030
692.408,0.70170
669.263,0.70196
646.119,0.57099
622.974,0.54137
599.83,0.51788

File: PEVA_0.18_IS_Trans_S_240819_R6.dpt
7496.91,0.94349
7473.76,0.93916
7450.62,0.94544
7427.47,0.93760
7404.33,0.92751
7381.18,0.92967
7358.04,0.92960
7334.89,0.94186
7311.75,0.92731
7288.61,0.93584
7265.46,0.93167
7242.32,0.91759
7219.17,0.90057
7196.03,0.91148
7172.88,0.90323
7149.74,0.92123
7126.59,0.92485
7103.45,0.91190
7080.3,0.91735
7057.16,0.91435
7034.02,0.92443
7010.87,0.92111
6987.73,0.91797
6964.58,0.92586
6941.44,0.92228
6918.29,0.92403
6895.15,0.92502
6872,0.92121
6848.86,0.93854
6825.71,0.92592
6802.57,0.93475
6779.43,0.93131
6756.28,0.93022
6733.14,0.93052
6709.99,0.93719
6686.85,0.93767
6663.7,0.93087
6640.56,0.93918
6617.41,0.93577
6594.27,0.93109
6571.12,0.93769
6547.98,0.92940
6524.84,0.93367
6501.69,0.93010
6478.55,0.93812
6455.4,0.93239
6432.26,0.93606
6409.11,0.93214
6385.97,0.94254
6362.82,0.94058
6339.68,0.93738
6316.53,0.93575
6293.39,0.93835
6270.24,0.93804
6247.1,0.93553
6223.96,0.93642
6200.81,0.93389
6177.67,0.93139
6154.52,0.93278
6131.38,0.92935
6108.23,0.93220
6085.09,0.92889
6061.94,0.93020
6038.8,0.92594
6015.65,0.92189
5992.51,0.91953
5969.37,0.91843
5946.22,0.91324
5923.08,0.91534
5899.93,0.90629
5876.79,0.89014
5853.64,0.85661
5830.5,0.82638
5807.35,0.78588
5784.21,0.73231
5761.06,0.77895
5737.92,0.84706
5714.78,0.85865
5691.63,0.83804
5668.49,0.81441
5645.34,0.84835
5622.2,0.86514
5599.05,0.87707
5575.91,0.87222
5552.76,0.87180
5529.62,0.87240
5506.47,0.87016
5483.33,0.87787
5460.19,0.87492
5437.04,0.87757
5413.9,0.87837
5390.75,0.88912
5367.61,0.89492
5344.46,0.88689
5321.32,0.90187
5298.17,0.90005
5275.03,0.90047
5251.88,0.89871
5228.74,0.89751
5205.6,0.89420
5182.45,0.90035
5159.31,0.90018
5136.16,0.90420
5113.02,0.90460
5089.87,0.90467
5066.73,0.90551
5043.58,0.90858
5020.44,0.90617
4997.29,0.90595
4974.15,0.90629
4951.01,0.90701
4927.86,0.90707
4904.72,0.90761
4881.57,0.90718
4858.43,0.90948
4835.28,0.91023
4812.14,0.91145
4788.99,0.91323
4765.85,0.91090
4742.7,0.91199
4719.56,0.91071
4696.42,0.90736
4673.27,0.90059
4650.13,0.90938
4626.98,0.91256
4603.84,0.91349
4580.69,0.91195
4557.55,0.90990
4534.4,0.90503
4511.26,0.89895
4488.11,0.88699
4464.97,0.87110
4441.83,0.83837
4418.68,0.80762
4395.54,0.75527
4372.39,0.67255
4349.25,0.51312
4326.1,0.28119
4302.96,0.59783
4279.81,0.57780
4256.67,0.38749
4233.52,0.53513
4210.38,0.50513
4187.24,0.45245
4164.09,0.46820
4140.95,0.48452
4117.8,0.50224
4094.66,0.51125
4071.51,0.58610
4048.37,0.61716
4025.22,0.63567
4002.08,0.69197
3978.93,0.68565
3955.79,0.70322
3932.65,0.69460
3909.5,0.69749
3886.36,0.69635
3863.21,0.70725
3840.07,0.70657
3816.92,0.71434
3793.78,0.75353
3770.63,0.76071
3747.49,0.74334
3724.34,0.75268
3701.2,0.75271
3678.06,0.72853
3654.91,0.71298
3631.77,0.71400
3608.62,0.66863
3585.48,0.77725
3562.33,0.80519
3539.19,0.82379
3516.04,0.82784
3492.9,0.81974
3469.75,0.72842
3446.61,0.69629
3423.47,0.79687
3400.32,0.81057
3377.18,0.79962
3354.03,0.80955
3330.89,0.82052
3307.74,0.82393
3284.6,0.82195
3261.45,0.81731
3238.31,0.80843
3215.16,0.79190
3192.02,0.77084
3168.87,0.74755
3145.73,0.72511
3122.59,0.68278
3099.44,0.58869
3076.3,0.46228
3053.15,0.36654
3030.01,0.23347
3006.86,0.14308
2983.72,0.03431
2960.57,0.00063
2937.43,0.00070
2914.28,0.00074
2891.14,0.00076
2868,0.00033
2844.85,0.00089
2821.71,0.00853
2798.56,0.08090
2775.42,0.21259
2752.27,0.27504
2729.13,0.29527
2705.98,0.34689
2682.84,0.31790
2659.69,0.32369
2636.55,0.34670
2613.41,0.43557
2590.26,0.52051
2567.12,0.60766
2543.97,0.65538
2520.83,0.67878
2497.68,0.70510
2474.54,0.69209
2451.39,0.74934
2428.25,0.75846
2405.1,0.74614
2381.96,0.72820
2358.82,0.57459
2335.67,0.56489
2312.53,0.63758
2289.38,0.71846
2266.24,0.74639
2243.09,0.76667
2219.95,0.79598
2196.8,0.78075
2173.66,0.75228
2150.51,0.74310
2127.37,0.78863
2104.23,0.80049
2081.08,0.79478
2057.94,0.77348
2034.79,0.73021
2011.65,0.73228
1988.5,0.79779
1965.36,0.79517
1942.21,0.78084
1919.07,0.76296
1895.92,0.71056
1872.78,0.70625
1849.64,0.70211
1826.49,0.64237
1803.35,0.55390
1780.2,0.38987
1757.06,0.05109
1733.91,0.00019
1710.77,0.15579
1687.62,0.35184
1664.48,0.53285
1641.33,0.55999
1618.19,0.64962
1595.05,0.65840
1571.9,0.62460
1548.76,0.58826
1525.61,0.52468
1502.47,0.43813
1479.32,0.11145
1456.18,0.00083
1433.03,0.02372
1409.89,0.26916
1386.74,0.07835
1363.6,0.00257
1340.46,0.22278
1317.31,0.24640
1294.17,0.12777
1271.02,0.01627
1247.88,0.00051
1224.73,0.00042
1201.59,0.09077
1178.44,0.20891
1155.3,0.18015
1132.15,0.12299
1109.01,0.15825
1085.87,0.12679
1062.72,0.07684
1039.58,0.02506
1016.43,0.00153
993.287,0.20885
970.142,0.18495
946.998,0.17449
923.853,0.38833
900.709,0.48602
877.564,0.50295
854.42,0.53295
831.275,0.60658
808.131,0.59207
784.986,0.62961
761.842,0.56613
738.697,0.30989
715.552,0.05042
692.408,0.70178
669.263,0.68623
646.119,0.57378
622.974,0.55178
599.83,0.52610

File: PEVA_0.18_IS_Trans_S_240819_R7.dpt
7496.91,0.94234
7473.76,0.92992
7450.62,0.94574
7427.47,0.91698
7404.33,0.91986
7381.18,0.92091
7358.04,0.93312
7334.89,0.93124
7311.75,0.92010
7288.61,0.91126
7265.46,0.91227
7242.32,0.91875
7219.17,0.91559
7196.03,0.91653
7172.88,0.91588
7149.74,0.93305
7126.59,0.91772
7103.45,0.91557
7080.3,0.90566
7057.16,0.92179
7034.02,0.91761
7010.87,0.91948
6987.73,0.92380
6964.58,0.91902
6941.44,0.92293
6918.29,0.91857
6895.15,0.92619
6872,0.92813
6848.86,0.92032
6825.71,0.93229
6802.57,0.92892
6779.43,0.93350
6756.28,0.92155
6733.14,0.92676
6709.99,0.93395
6686.85,0.93159
6663.7,0.93821
6640.56,0.92995
6617.41,0.93645
6594.27,0.93115
6571.12,0.92857
6547.98,0.93913
6524.84,0.93590
6501.69,0.94039
6478.55,0.93488
6455.4,0.93233
6432.26,0.94222
6409.11,0.93935
6385.97,0.93148
6362.82,0.93680
6339.68,0.93140
6316.53,0.93528
6293.39,0.93663
6270.24,0.93537
6247.1,0.93141
6223.96,0.93627
6200.81,0.93071
6177.67,0.93590
6154.52,0.93115
6131.38,0.93743
6108.23,0.93227
6085.09,0.93211
6061.94,0.92878
6038.8,0.92350
6015.65,0.92559
5992.51,0.91705
5969.37,0.91525
5946.22,0.91484
5923.08,0.90663
5899.93,0.90138
5876.79,0.88797
5853.64,0.85772
5830.5,0.82345
5807.35,0.78836
5784.21,0.73151
5761.06,0.78084
5737.92,0.84386
5714.78,0.85482
5691.63,0.83821
5668.49,0.81331
5645.34,0.85118
5622.2,0.86647
5599.05,0.87223
5575.91,0.87359
5552.76,0.86785
5529.62,0.87074
5506.47,0.86758
5483.33,0.87594
5460.19,0.86878
5437.04,0.87244
5413.9,0.86664
5390.75,0.88571
5367.61,0.89362
5344.46,0.87621
5321.32,0.89966
5298.17,0.89980
5275.03,0.89921
5251.88,0.89365
5228.74,0.89100
5205.6,0.88611
5182.45,0.89690
5159.31,0.89655
5136.16,0.90128
5113.02,0.90232
5089.87,0.90568
5066.73,0.90413
5043.58,0.90577
5020.44,0.90548
4997.29,0.90350
4974.15,0.90204
4951.01,0.90461
4927.86,0.90708
4904.72,0.90687
4881.57,0.90557
4858.43,0.90737
4835.28,0.90869
4812.14,0.91203
4788.99,0.91210
4765.85,0.90970
4742.7,0.90898
4719.56,0.90941
4696.42,0.90525
4673.27,0.89851
4650.13,0.90759
4626.98,0.91189
4603.84,0.91110
4580.69,0.91017
4557.55,0.90826
4534.4,0.90474
4511.26,0.89731
4488.11,0.88629
4464.97,0.86985
4441.83,0.83742
4418.68,0.80622
4395.54,0.75287
4372.39,0.67159
4349.25,0.51172
4326.1,0.28021
4302.96,0.59596
4279.81,0.57606
4256.67,0.38580
4233.52,0.53369
4210.38,0.50423
4187.24,0.45124
4164.09,0.46626
4140.95,0.48282
4117.8,0.49973
4094.66,0.51016
4071.51,0.58446
4048.37,0.61464
4025.22,0.63384
4002.08,0.68977
3978.93,0.68318
3955.79,0.70014
3932.65,0.68720
3909.5,0.69510
3886.36,0.68594
3863.21,0.69066
3840.07,0.68557
3816.92,0.69779
3793.78,0.74745
3770.63,0.74912
3747.49,0.71514
3724.34,0.73701
3701.2,0.74418
3678.06,0.71235
3654.91,0.70226
3631.77,0.70015
3608.62,0.65520
3585.48,0.76523
3562.33,0.79420
3539.19,0.81789
3516.04,0.82368
3492.9,0.81642
3469.75,0.72498
3446.61,0.69249
3423.47,0.79218
3400.32,0.80638
3377.18,0.79558
3354.03,0.80499
3330.89,0.81858
3307.74,0.82016
3284.6,0.81941
3261.45,0.81300
3238.31,0.80526
3215.16,0.78834
3192.02,0.76796
3168.87,0.74685
3145.73,0.72259
3122.59,0.67955
3099.44,0.58640
3076.3,0.46030
3053.15,0.36536
3030.01,0.23176
3006.86,0.14224
2983.72,0.03382
2960.57,0.00057
2937.43,0.00035
2914.28,0.00041
2891.14,0.00083
2868,0.00049
2844.85,0.00062
2821.71,0.00885
2798.56,0.08075
2775.42,0.21216
2752.27,0.27378
2729.13,0.29436
2705.98,0.34589
2682.84,0.31668
2659.69,0.32226
2636.55,0.34568
2613.41,0.43446
2590.26,0.51869
2567.12,0.60546
2543.97,0.65376
2520.83,0.67761
2497.68,0.70390
2474.54,0.69022
2451.39,0.74671
2428.25,0.75653
2405.1,0.74488
2381.96,0.72966
2358.82,0.58867
2335.67,0.57422
2312.53,0.64108
2289.38,0.71742
2266.24,0.74534
2243.09,0.76550
2219.95,0.79458
2196.8,0.77873
2173.66,0.75017
2150.51,0.74104
2127.37,0.78668
2104.23,0.79870
2081.08,0.79363
2057.94,0.77211
2034.79,0.72871
2011.65,0.73063
1988.5,0.79442
1965.36,0.79165
1942.21,0.77480
1919.07,0.75705
1895.92,0.70648
1872.78,0.70237
1849.64,0.69774
1826.49,0.63453
1803.35,0.54879
1780.2,0.38558
1757.06,0.05046
1733.91,0.00086
1710.77,0.15291
1687.62,0.34366
1664.48,0.52565
1641.33,0.55292
1618.19,0.63852
1595.05,0.65310
1571.9,0.61506
1548.76,0.57795
1525.61,0.50836
1502.47,0.43048
1479.32,0.11086
1456.18,0.00106
1433.03,0.02344
1409.89,0.26743
1386.74,0.07711
1363.6,0.00268
1340.46,0.21983
1317.31,0.24461
1294.17,0.12729
1271.02,0.01596
1247.88,0.00034
1224.73,0.00015
1201.59,0.09083
1178.44,0.20809
1155.3,0.17965
1132.15,0.12234
1109.01,0.15763
1085.87,0.12633
1062.72,0.07605
1039.58,0.02456
1016.43,0.00194
993.287,0.20837
970.142,0.18375
946.998,0.17356
923.853,0.38698
900.709,0.48515
877.564,0.50242
854.42,0.53288
831.275,0.60518
808.131,0.58954
784.986,0.62669
761.842,0.56566
738.697,0.30888
715.552,0.05111
692.408,0.70086
669.263,0.69165
646.119,0.57204
622.974,0.54635
599.83,0.52335

File: PEVA_0.18_IS_Trans_S_240819_R8.dpt
7496.91,0.94951
7473.76,0.94503
7450.62,0.93411
7427.47,0.93493
7404.33,0.93296
7381.18,0.92669
7358.04,0.91397
7334.89,0.92716
7311.75,0.90841
7288.61,0.92794
7265.46,0.92162
7242.32,0.89336
7219.17,0.90086
7196.03,0.92479
7172.88,0.91383
7149.74,0.92576
7126.59,0.91577
7103.45,0.91590
7080.3,0.92957
7057.16,0.92071
7034.02,0.92541
7010.87,0.91873
6987.73,0.92546
6964.58,0.92600
6941.44,0.92170
6918.29,0.91819
6895.15,0.92324
6872,0.92544
6848.86,0.92575
6825.71,0.93563
6802.57,0.92518
6779.43,0.94207
6756.28,0.93785
6733.14,0.93000
6709.99,0.92762
6686.85,0.93628
6663.7,0.93972
6640.56,0.93847
6617.41,0.94033
6594.27,0.94368
6571.12,0.93460
6547.98,0.93726
6524.84,0.94009
6501.69,0.93471
6478.55,0.93450
6455.4,0.94079
6432.26,0.94015
6409.11,0.93880
6385.97,0.93356
6362.82,0.93937
6339.68,0.93320
6316.53,0.93514
6293.39,0.93661
6270.24,0.94449
6247.1,0.94038
6223.96,0.93820
6200.81,0.93682
6177.67,0.93657
6154.52,0.92962
6131.38,0.93185
6108.23,0.93516
6085.09,0.93028
6061.94,0.93012
6038.8,0.92248
6015.65,0.92436
5992.51,0.92332
5969.37,0.91741
5946.22,0.91293
5923.08,0.90776
5899.93,0.90517
5876.79,0.88523
5853.64,0.85650
5830.5,0.82447
5807.35,0.78547
5784.21,0.73053
5761.06,0.77738
5737.92,0.84398
5714.78,0.85754
5691.63,0.83944
5668.49,0.81051
5645.34,0.84756
5622.2,0.86699
5599.05,0.87588
5575.91,0.87671
5552.76,0.86972
5529.62,0.87208
5506.47,0.86832
5483.33,0.87544
5460.19,0.87098
5437.04,0.87309
5413.9,0.86953
5390.75,0.88882
5367.61,0.89310
5344.46,0.87844
5321.32,0.89993
5298.17,0.89890
5275.03,0.90165
5251.88,0.89546
5228.74,0.89397
5205.6,0.89205
5182.45,0.90003
5159.31,0.89841
5136.16,0.90232
5113.02,0.90413
5089.87,0.90287
5066.73,0.90508
5043.58,0.90800
5020.44,0.90702
4997.29,0.90585
4974.15,0.90316
4951.01,0.90455
4927.86,0.90857
4904.72,0.90729
4881.57,0.90594
4858.43,0.90822
4835.28,0.91145
4812.14,0.91132
4788.99,0.91276
4765.85,0.91204
4742.7,0.91007
4719.56,0.90882
4696.42,0.90646
4673.27,0.89906
4650.13,0.90877
4626.98,0.91123
4603.84,0.91068
4580.69,0.91100
4557.55,0.90926
4534.4,0.90505
4511.26,0.89869
4488.11,0.88761
4464.97,0.87144
4441.83,0.83801
4418.68,0.80681
4395.54,0.75374
4372.39,0.67229
4349.25,0.51256
4326.1,0.27992
4302.96,0.59685
4279.81,0.57706
4256.67,0.38603
4233.52,0.53312
4210.38,0.50404
4187.24,0.45218
4164.09,0.46719
4140.95,0.48337
4117.8,0.50097
4094.66,0.50986
4071.51,0.58488
4048.37,0.61555
4025.22,0.63345
4002.08,0.68961
3978.93,0.68479
3955.79,0.70133
3932.65,0.68856
3909.5,0.69584
3886.36,0.68671
3863.21,0.69210
3840.07,0.68731
3816.92,0.69970
3793.78,0.74794
3770.63,0.75136
3747.49,0.71730
3724.34,0.72395
3701.2,0.73327
3678.06,0.71087
3654.91,0.70164
3631.77,0.69239
3608.62,0.65154
3585.48,0.76032
3562.33,0.79155
3539.19,0.81820
3516.04,0.82293
3492.9,0.81545
3469.75,0.72585
3446.61,0.69230
3423.47,0.79404
3400.32,0.80749
3377.18,0.79798
3354.03,0.80714
3330.89,0.81870
3307.74,0.82091
3284.6,0.82076
3261.45,0.81460
3238.31,0.80811
3215.16,0.79091
3192.02,0.76865
3168.87,0.74618
3145.73,0.72314
3122.59,0.68011
3099.44,0.58688
3076.3,0.46043
3053.15,0.36470
3030.01,0.23091
3006.86,0.14194
2983.72,0.03360
2960.57,0.00059
2937.43,0.00083
2914.28,0.00101
2891.14,0.00059
2868,0.00039
2844.85,0.00092
2821.71,0.00867
2798.56,0.07996
2775.42,0.21130
2752.27,0.27342
2729.13,0.29398
2705.98,0.34516
2682.84,0.31601
2659.69,0.32196
2636.55,0.34562
2613.41,0.43374
2590.26,0.51838
2567.12,0.60613
2543.97,0.65384
2520.83,0.67699
2497.68,0.70373
2474.54,0.68997
2451.39,0.74780
2428.25,0.75665
2405.1,0.74488
2381.96,0.69197
2358.82,0.41357
2335.67,0.44102
2312.53,0.56537
2289.38,0.70460
2266.24,0.73752
2243.09,0.76363
2219.95,0.79442
2196.8,0.77959
2173.66,0.75030
2150.51,0.74095
2127.37,0.78657
2104.23,0.79875
2081.08,0.79403
2057.94,0.77338
2034.79,0.72987
2011.65,0.73155
1988.5,0.79388
1965.36,0.79073
1942.21,0.77563
1919.07,0.75813
1895.92,0.70798
1872.78,0.70279
1849.64,0.69737
1826.49,0.63410
1803.35,0.54877
1780.2,0.38451
1757.06,0.04964
1733.91,0.00098
1710.77,0.15135
1687.62,0.34259
1664.48,0.52543
1641.33,0.55153
1618.19,0.63652
1595.05,0.65342
1571.9,0.61566
1548.76,0.57667
1525.61,0.50775
1502.47,0.43068
1479.32,0.11048
1456.18,0.00105
1433.03,0.02302
1409.89,0.26675
1386.74,0.07648
1363.6,0.00241
1340.46,0.21881
1317.31,0.24320
1294.17,0.12610
1271.02,0.01594
1247.88,0.00005
1224.73,0.00054
1201.59,0.08974
1178.44,0.20700
1155.3,0.17943
1132.15,0.12124
1109.01,0.15733
1085.87,0.12580
1062.72,0.07538
1039.58,0.02475
1016.43,0.00120
993.287,0.20764
970.142,0.18250
946.998,0.17261
923.853,0.38571
900.709,0.48508
877.564,0.50308
854.42,0.53326
831.275,0.60358
808.131,0.58658
784.986,0.62433
761.842,0.56538
738.697,0.30820
715.552,0.04942
692.408,0.68150
669.263,0.62736
646.119,0.55372
622.974,0.54269
599.83,0.51892

File: PEVA_0.18_IS_Trans_S_240819_R9.dpt
7496.91,0.91951
7473.76,0.92414
7450.62,0.92537
7427.47,0.92802
7404.33,0.93109
7381.18,0.93931
7358.04,0.92896
7334.89,0.91725
7311.75,0.91176
7288.61,0.92475
7265.46,0.92341
7242.32,0.91420
7219.17,0.91922
7196.03,0.90979
7172.88,0.89608
7149.74,0.91509
7126.59,0.91758
7103.45,0.91276
7080.3,0.90987
7057.16,0.91310
7034.02,0.92365
7010.87,0.91463
6987.73,0.91906
6964.58,0.91173
6941.44,0.90787
6918.29,0.91516
6895.15,0.93128
6872,0.92020
6848.86,0.92217
6825.71,0.93126
6802.57,0.93695
6779.43,0.92226
6756.28,0.92624
6733.14,0.92685
6709.99,0.92769
6686.85,0.94178
6663.7,0.93052
6640.56,0.93647
6617.41,0.92941
6594.27,0.93873
6571.12,0.93228
6547.98,0.93671
6524.84,0.92990
6501.69,0.92778
6478.55,0.92605
6455.4,0.93052
6432.26,0.93531
6409.11,0.93160
6385.97,0.93691
6362.82,0.93568
6339.68,0.93829
6316.53,0.93148
6293.39,0.93254
6270.24,0.93888
6247.1,0.93084
6223.96,0.93357
6200.81,0.92875
6177.67,0.93667
6154.52,0.92941
6131.38,0.92729
6108.23,0.92655
6085.09,0.93138
6061.94,0.92878
6038.8,0.92371
6015.65,0.91800
5992.51,0.91599
5969.37,0.91808
5946.22,0.91241
5923.08,0.90341
5899.93,0.90643
5876.79,0.88481
5853.64,0.85442
5830.5,0.82405
5807.35,0.78712
5784.21,0.72893
5761.06,0.78076
5737.92,0.84269
5714.78,0.85506
5691.63,0.83726
5668.49,0.81414
5645.34,0.85180
5622.2,0.86565
5599.05,0.87241
5575.91,0.87020
5552.76,0.86649
5529.62,0.87253
5506.47,0.86331
5483.33,0.87385
5460.19,0.86809
5437.04,0.87134
5413.9,0.86515
5390.75,0.88357
5367.61,0.89168
5344.46,0.86950
5321.32,0.89806
5298.17,0.89677
5275.03,0.89956
5251.88,0.89056
5228.74,0.89253
5205.6,0.87878
5182.45,0.89649
5159.31,0.89585
5136.16,0.89933
5113.02,0.90288
5089.87,0.90311
5066.73,0.90545
5043.58,0.90514
5020.44,0.90577
4997.29,0.90356
4974.15,0.90139
4951.01,0.90366
4927.86,0.90704
4904.72,0.90550
4881.57,0.90545
4858.43,0.90592
4835.28,0.90817
4812.14,0.90985
4788.99,0.91154
4765.85,0.90836
4742.7,0.90880
4719.56,0.90894
4696.42,0.90534
4673.27,0.89883
4650.13,0.90809
4626.98,0.91065
4603.84,0.91024
4580.69,0.90926
4557.55,0.90743
4534.4,0.90293
4511.26,0.89650
4488.11,0.88467
4464.97,0.86903
4441.83,0.83618
4418.68,0.80451
4395.54,0.75289
4372.39,0.67119
4349.25,0.51246
4326.1,0.27957
4302.96,0.59626
4279.81,0.57527
4256.67,0.38547
4233.52,0.53270
4210.38,0.50391
4187.24,0.45071
4164.09,0.46602
4140.95,0.48277
4117.8,0.49947
4094.66,0.51002
4071.51,0.58375
4048.37,0.61460
4025.22,0.63219
4002.08,0.68873
3978.93,0.68141
3955.79,0.69895
3932.65,0.68494
3909.5,0.69395
3886.36,0.68237
3863.21,0.68423
3840.07,0.67580
3816.92,0.69042
3793.78,0.74492
3770.63,0.74545
3747.49,0.70522
3724.34,0.72865
3701.2,0.73744
3678.06,0.70237
3654.91,0.69425
3631.77,0.68968
3608.62,0.64701
3585.48,0.75528
3562.33,0.78612
3539.19,0.81342
3516.04,0.81944
3492.9,0.81199
3469.75,0.72361
3446.61,0.68928
3423.47,0.79060
3400.32,0.80441
3377.18,0.79615
3354.03,0.80391
3330.89,0.81626
3307.74,0.81877
3284.6,0.81778
3261.45,0.81269
3238.31,0.80466
3215.16,0.78766
3192.02,0.76553
3168.87,0.74552
3145.73,0.72143
3122.59,0.67880
3099.44,0.58491
3076.3,0.45983
3053.15,0.36426
3030.01,0.23105
3006.86,0.14141
2983.72,0.03382
2960.57,0.00037
2937.43,0.00058
2914.28,0.00072
2891.14,0.00052
2868,0.00038
2844.85,0.00021
2821.71,0.00848
2798.56,0.08064
2775.42,0.21154
2752.27,0.27339
2729.13,0.29418
2705.98,0.34494
2682.84,0.31605
2659.69,0.32187
2636.55,0.34509
2613.41,0.43370
2590.26,0.51811
2567.12,0.60504
2543.97,0.65283
2520.83,0.67637
2497.68,0.70333
2474.54,0.68971
2451.39,0.74710
2428.25,0.75541
2405.1,0.74356
2381.96,0.71791
2358.82,0.53028
2335.67,0.53373
2312.53,0.61920
2289.38,0.71364
2266.24,0.74225
2243.09,0.76355
2219.95,0.79334
2196.8,0.77795
2173.66,0.74923
2150.51,0.74011
2127.37,0.78614
2104.23,0.79770
2081.08,0.79259
2057.94,0.77113
2034.79,0.72776
2011.65,0.72985
1988.5,0.79194
1965.36,0.78889
1942.21,0.77248
1919.07,0.75431
1895.92,0.70526
1872.78,0.70075
1849.64,0.69568
1826.49,0.63072
1803.35,0.54621
1780.2,0.38279
1757.06,0.04952
1733.91,0.00022
1710.77,0.14966
1687.62,0.33890
1664.48,0.52092
1641.33,0.54700
1618.19,0.63063
1595.05,0.64992
1571.9,0.60987
1548.76,0.57144
1525.61,0.50069
1502.47,0.42628
1479.32,0.10988
1456.18,0.00055
1433.03,0.02301
1409.89,0.26634
1386.74,0.07634
1363.6,0.00228
1340.46,0.21807
1317.31,0.24289
1294.17,0.12600
1271.02,0.01551
1247.88,0.00050
1224.73,0.00052
1201.59,0.09026
1178.44,0.20698
1155.3,0.17911
1132.15,0.12219
1109.01,0.15754
1085.87,0.12582
1062.72,0.07556
1039.58,0.02478
1016.43,0.00154
993.287,0.20705
970.142,0.18268
946.998,0.17307
923.853,0.38596
900.709,0.48443
877.564,0.50216
854.42,0.52992
831.275,0.60078
808.131,0.58651
784.986,0.62577
761.842,0.56493
738.697,0.30799
715.552,0.04892
692.408,0.69599
669.263,0.67245
646.119,0.56475
622.974,0.54176
599.83,0.51853