Folder: fsri_materials_database/01_Data/PEVA/FTIR/IS (part 5)

File: PEVA_0.10_IS_T_240808_R12.dpt
7496.93,0.02984
7473.78,0.03370
7450.64,0.03784
7427.49,0.03819
7404.35,0.02381
7381.2,0.03835
7358.06,0.02696
7334.91,0.03565
7311.77,0.03455
7288.62,0.04233
7265.48,0.02109
7242.34,0.04054
7219.19,0.02750
7196.05,0.04259
7172.9,0.03025
7149.76,0.03493
7126.61,0.02747
7103.47,0.04557
7080.32,0.04111
7057.18,0.03619
7034.03,0.03562
7010.89,0.03046
6987.74,0.03740
6964.6,0.03236
6941.46,0.02768
6918.31,0.03511
6895.17,0.02977
6872.02,0.02590
6848.88,0.03730
6825.73,0.02854
6802.59,0.03321
6779.44,0.03052
6756.3,0.03185
6733.15,0.03097
6710.01,0.03100
6686.86,0.03238
6663.72,0.03278
6640.58,0.03193
6617.43,0.03355
6594.29,0.02657
6571.14,0.02539
6548,0.03110
6524.85,0.03244
6501.71,0.03211
6478.56,0.03134
6455.42,0.02702
6432.27,0.03550
6409.13,0.03073
6385.98,0.03148
6362.84,0.03102
6339.7,0.03040
6316.55,0.02973
6293.41,0.02946
6270.26,0.03297
6247.12,0.03107
6223.97,0.02944
6200.83,0.02737
6177.68,0.03223
6154.54,0.03177
6131.39,0.03028
6108.25,0.03275
6085.1,0.02858
6061.96,0.03114
6038.82,0.02957
6015.67,0.02767
5992.53,0.03293
5969.38,0.03186
5946.24,0.03036
5923.09,0.03021
5899.95,0.03091
5876.8,0.02917
5853.66,0.03109
5830.51,0.02912
5807.37,0.02797
5784.22,0.02861
5761.08,0.02988
5737.94,0.03158
5714.79,0.02997
5691.65,0.03041
5668.5,0.03127
5645.36,0.03063
5622.21,0.03153
5599.07,0.02974
5575.92,0.02969
5552.78,0.02956
5529.63,0.02989
5506.49,0.03035
5483.34,0.03006
5460.2,0.03042
5437.06,0.03051
5413.91,0.03173
5390.77,0.03060
5367.62,0.03022
5344.48,0.02953
5321.33,0.02821
5298.19,0.03058
5275.04,0.02968
5251.9,0.03037
5228.75,0.02949
5205.61,0.02828
5182.46,0.02879
5159.32,0.02895
5136.18,0.03060
5113.03,0.02915
5089.89,0.02963
5066.74,0.02943
5043.6,0.02975
5020.45,0.03013
4997.31,0.02946
4974.16,0.02992
4951.02,0.03022
4927.87,0.02849
4904.73,0.02974
4881.58,0.03005
4858.44,0.03070
4835.3,0.02948
4812.15,0.03091
4789.01,0.02916
4765.86,0.03037
4742.72,0.03063
4719.57,0.02946
4696.43,0.02956
4673.28,0.02985
4650.14,0.02907
4626.99,0.02982
4603.85,0.02963
4580.7,0.03006
4557.56,0.02888
4534.42,0.02907
4511.27,0.02987
4488.13,0.03002
4464.98,0.02926
4441.84,0.02943
4418.69,0.03011
4395.55,0.03045
4372.4,0.02945
4349.26,0.02976
4326.11,0.02962
4302.97,0.02934
4279.82,0.03033
4256.68,0.02964
4233.54,0.03026
4210.39,0.02987
4187.25,0.02960
4164.1,0.02981
4140.96,0.03014
4117.81,0.03064
4094.67,0.02958
4071.52,0.02967
4048.38,0.02966
4025.23,0.02959
4002.09,0.02971
3978.94,0.02955
3955.8,0.02997
3932.66,0.02964
3909.51,0.02914
3886.37,0.02925
3863.22,0.03028
3840.08,0.03093
3816.93,0.03029
3793.79,0.02971
3770.64,0.02987
3747.5,0.02928
3724.35,0.03008
3701.21,0.02952
3678.06,0.02874
3654.92,0.02847
3631.78,0.02836
3608.63,0.02876
3585.49,0.02711
3562.34,0.02617
3539.2,0.02665
3516.05,0.02673
3492.91,0.02608
3469.76,0.02547
3446.62,0.02612
3423.47,0.02561
3400.33,0.02595
3377.18,0.02631
3354.04,0.02574
3330.9,0.02536
3307.75,0.02604
3284.61,0.02577
3261.46,0.02598
3238.32,0.02667
3215.17,0.02661
3192.03,0.02666
3168.88,0.02632
3145.74,0.02651
3122.59,0.02700
3099.45,0.02669
3076.3,0.02697
3053.16,0.02699
3030.02,0.02670
3006.87,0.02639
2983.73,0.02617
2960.58,0.02531
2937.44,0.02539
2914.29,0.02589
2891.15,0.02653
2868,0.02679
2844.86,0.02666
2821.71,0.02705
2798.57,0.02689
2775.42,0.02775
2752.28,0.02716
2729.14,0.02743
2705.99,0.02683
2682.85,0.02709
2659.7,0.02693
2636.56,0.02678
2613.41,0.02710
2590.27,0.02702
2567.12,0.02701
2543.98,0.02648
2520.83,0.02655
2497.69,0.02666
2474.55,0.02667
2451.4,0.02713
2428.26,0.02677
2405.11,0.02661
2381.97,0.02696
2358.82,0.02679
2335.68,0.02698
2312.53,0.02640
2289.39,0.02644
2266.24,0.02645
2243.1,0.02631
2219.95,0.02632
2196.81,0.02654
2173.67,0.02587
2150.52,0.02596
2127.38,0.02603
2104.23,0.02600
2081.09,0.02567
2057.94,0.02581
2034.8,0.02583
2011.65,0.02573
1988.51,0.02573
1965.36,0.02582
1942.22,0.02593
1919.07,0.02552
1895.93,0.02534
1872.79,0.02543
1849.64,0.02441
1826.5,0.02440
1803.35,0.02398
1780.21,0.02362
1757.06,0.02177
1733.92,0.02334
1710.77,0.02408
1687.63,0.02308
1664.48,0.02193
1641.34,0.02144
1618.19,0.02248
1595.05,0.02262
1571.91,0.02194
1548.76,0.02159
1525.62,0.02186
1502.47,0.02246
1479.33,0.02186
1456.18,0.02154
1433.04,0.02140
1409.89,0.02108
1386.75,0.02096
1363.6,0.02082
1340.46,0.02070
1317.31,0.02012
1294.17,0.02041
1271.03,0.02138
1247.88,0.02230
1224.74,0.02204
1201.59,0.02102
1178.45,0.01987
1155.3,0.02020
1132.16,0.02065
1109.01,0.02099
1085.87,0.02189
1062.72,0.02385
1039.58,0.02297
1016.43,0.02308
993.29,0.02441
970.145,0.02355
947,0.02276
923.856,0.02193
900.711,0.02267
877.567,0.02173
854.422,0.02241
831.277,0.02137
808.133,0.02114
784.988,0.01978
761.844,0.02071
738.699,0.02007
715.554,0.01976
692.41,0.01901
669.265,0.01767
646.12,0.01847
622.976,0.01685
599.831,0.01997

File: PEVA_0.10_IS_T_240808_R13.dpt
7496.93,0.03532
7473.78,0.03431
7450.64,0.03765
7427.49,0.02825
7404.35,0.04609
7381.2,0.02671
7358.06,0.03066
7334.91,0.04029
7311.77,0.03784
7288.62,0.01956
7265.48,0.03789
7242.34,0.04408
7219.19,0.02815
7196.05,0.03991
7172.9,0.03832
7149.76,0.03778
7126.61,0.03126
7103.47,0.05141
7080.32,0.03663
7057.18,0.03701
7034.03,0.03616
7010.89,0.04121
6987.74,0.03114
6964.6,0.03193
6941.46,0.02923
6918.31,0.03046
6895.17,0.02958
6872.02,0.02997
6848.88,0.03356
6825.73,0.03014
6802.59,0.03663
6779.44,0.03719
6756.3,0.03026
6733.15,0.02841
6710.01,0.03016
6686.86,0.02970
6663.72,0.03259
6640.58,0.02837
6617.43,0.03031
6594.29,0.02909
6571.14,0.03299
6548,0.03253
6524.85,0.02784
6501.71,0.02677
6478.56,0.03108
6455.42,0.02890
6432.27,0.03432
6409.13,0.02618
6385.98,0.03173
6362.84,0.03056
6339.7,0.02689
6316.55,0.02940
6293.41,0.02999
6270.26,0.03181
6247.12,0.03184
6223.97,0.02715
6200.83,0.02923
6177.68,0.03234
6154.54,0.03317
6131.39,0.03261
6108.25,0.02929
6085.1,0.03100
6061.96,0.03069
6038.82,0.02812
6015.67,0.02969
5992.53,0.02825
5969.38,0.02879
5946.24,0.02918
5923.09,0.02803
5899.95,0.03118
5876.8,0.02863
5853.66,0.02711
5830.51,0.02819
5807.37,0.02845
5784.22,0.03122
5761.08,0.02982
5737.94,0.02911
5714.79,0.03002
5691.65,0.03098
5668.5,0.03225
5645.36,0.03004
5622.21,0.02774
5599.07,0.02940
5575.92,0.03131
5552.78,0.03047
5529.63,0.03140
5506.49,0.03150
5483.34,0.03196
5460.2,0.03132
5437.06,0.02789
5413.91,0.02923
5390.77,0.03037
5367.62,0.02959
5344.48,0.02839
5321.33,0.03060
5298.19,0.02927
5275.04,0.02937
5251.9,0.02985
5228.75,0.02926
5205.61,0.02973
5182.46,0.02921
5159.32,0.03093
5136.18,0.03126
5113.03,0.02956
5089.89,0.02957
5066.74,0.02942
5043.6,0.03001
5020.45,0.02948
4997.31,0.02899
4974.16,0.03059
4951.02,0.03011
4927.87,0.02929
4904.73,0.02947
4881.58,0.03040
4858.44,0.03010
4835.3,0.02871
4812.15,0.02827
4789.01,0.03009
4765.86,0.02986
4742.72,0.03053
4719.57,0.03032
4696.43,0.02944
4673.28,0.02929
4650.14,0.03070
4626.99,0.02900
4603.85,0.02970
4580.7,0.02991
4557.56,0.03011
4534.42,0.02921
4511.27,0.02964
4488.13,0.03006
4464.98,0.02968
4441.84,0.02900
4418.69,0.02972
4395.55,0.02987
4372.4,0.03042
4349.26,0.02990
4326.11,0.02972
4302.97,0.02913
4279.82,0.02979
4256.68,0.03065
4233.54,0.02927
4210.39,0.03051
4187.25,0.02943
4164.1,0.02886
4140.96,0.03019
4117.81,0.03085
4094.67,0.02960
4071.52,0.02945
4048.38,0.02939
4025.23,0.02942
4002.09,0.02878
3978.94,0.02943
3955.8,0.02922
3932.66,0.02946
3909.51,0.02945
3886.37,0.02943
3863.22,0.03071
3840.08,0.03032
3816.93,0.03005
3793.79,0.02934
3770.64,0.03005
3747.5,0.02991
3724.35,0.02905
3701.21,0.02980
3678.06,0.02885
3654.92,0.02855
3631.78,0.02882
3608.63,0.02741
3585.49,0.02676
3562.34,0.02734
3539.2,0.02679
3516.05,0.02652
3492.91,0.02642
3469.76,0.02599
3446.62,0.02703
3423.47,0.02569
3400.33,0.02608
3377.18,0.02582
3354.04,0.02664
3330.9,0.02586
3307.75,0.02578
3284.61,0.02577
3261.46,0.02602
3238.32,0.02621
3215.17,0.02656
3192.03,0.02647
3168.88,0.02624
3145.74,0.02666
3122.59,0.02704
3099.45,0.02721
3076.3,0.02631
3053.16,0.02704
3030.02,0.02649
3006.87,0.02615
2983.73,0.02586
2960.58,0.02543
2937.44,0.02551
2914.29,0.02592
2891.15,0.02654
2868,0.02617
2844.86,0.02716
2821.71,0.02730
2798.57,0.02688
2775.42,0.02679
2752.28,0.02721
2729.14,0.02694
2705.99,0.02697
2682.85,0.02720
2659.7,0.02689
2636.56,0.02703
2613.41,0.02705
2590.27,0.02707
2567.12,0.02706
2543.98,0.02690
2520.83,0.02679
2497.69,0.02698
2474.55,0.02676
2451.4,0.02686
2428.26,0.02698
2405.11,0.02659
2381.97,0.02695
2358.82,0.02756
2335.68,0.02682
2312.53,0.02657
2289.39,0.02598
2266.24,0.02608
2243.1,0.02603
2219.95,0.02636
2196.81,0.02595
2173.67,0.02608
2150.52,0.02594
2127.38,0.02543
2104.23,0.02563
2081.09,0.02591
2057.94,0.02572
2034.8,0.02545
2011.65,0.02542
1988.51,0.02534
1965.36,0.02497
1942.22,0.02546
1919.07,0.02533
1895.93,0.02500
1872.79,0.02518
1849.64,0.02434
1826.5,0.02491
1803.35,0.02414
1780.21,0.02317
1757.06,0.02166
1733.92,0.02278
1710.77,0.02455
1687.63,0.02289
1664.48,0.02172
1641.34,0.02166
1618.19,0.02216
1595.05,0.02234
1571.91,0.02149
1548.76,0.02156
1525.62,0.02287
1502.47,0.02169
1479.33,0.02188
1456.18,0.02137
1433.04,0.02118
1409.89,0.02075
1386.75,0.02071
1363.6,0.02053
1340.46,0.02051
1317.31,0.01937
1294.17,0.02031
1271.03,0.02160
1247.88,0.02266
1224.74,0.02203
1201.59,0.02110
1178.45,0.02061
1155.3,0.02046
1132.16,0.02102
1109.01,0.02189
1085.87,0.02148
1062.72,0.02345
1039.58,0.02300
1016.43,0.02232
993.29,0.02359
970.145,0.02307
947,0.02288
923.856,0.02214
900.711,0.02243
877.567,0.02186
854.422,0.02209
831.277,0.02136
808.133,0.02046
784.988,0.02052
761.844,0.02002
738.699,0.01993
715.554,0.01911
692.41,0.01951
669.265,0.01839
646.12,0.01862
622.976,0.01817
599.831,0.01917

File: PEVA_0.10_IS_T_240808_R14.dpt
7496.93,0.03697
7473.78,0.03602
7450.64,0.03965
7427.49,0.02321
7404.35,0.04110
7381.2,0.03203
7358.06,0.02839
7334.91,0.04149
7311.77,0.02542
7288.62,0.02437
7265.48,0.04467
7242.34,0.03752
7219.19,0.02669
7196.05,0.03027
7172.9,0.02429
7149.76,0.03083
7126.61,0.02633
7103.47,0.03375
7080.32,0.02843
7057.18,0.03412
7034.03,0.03464
7010.89,0.02533
6987.74,0.02934
6964.6,0.03724
6941.46,0.02611
6918.31,0.03146
6895.17,0.03516
6872.02,0.03153
6848.88,0.03159
6825.73,0.03051
6802.59,0.02932
6779.44,0.04054
6756.3,0.02974
6733.15,0.03534
6710.01,0.02673
6686.86,0.03214
6663.72,0.03166
6640.58,0.03055
6617.43,0.03359
6594.29,0.01962
6571.14,0.02474
6548,0.03329
6524.85,0.03368
6501.71,0.02649
6478.56,0.02777
6455.42,0.02571
6432.27,0.02828
6409.13,0.03027
6385.98,0.03504
6362.84,0.03120
6339.7,0.02795
6316.55,0.02843
6293.41,0.02904
6270.26,0.03082
6247.12,0.02969
6223.97,0.03434
6200.83,0.03049
6177.68,0.03026
6154.54,0.02946
6131.39,0.03395
6108.25,0.02949
6085.1,0.03006
6061.96,0.02888
6038.82,0.02950
6015.67,0.02632
5992.53,0.03063
5969.38,0.03144
5946.24,0.03104
5923.09,0.02821
5899.95,0.03291
5876.8,0.02866
5853.66,0.03002
5830.51,0.02868
5807.37,0.02940
5784.22,0.03106
5761.08,0.02726
5737.94,0.02664
5714.79,0.03048
5691.65,0.02982
5668.5,0.02777
5645.36,0.02984
5622.21,0.03084
5599.07,0.03193
5575.92,0.03066
5552.78,0.02879
5529.63,0.02982
5506.49,0.02938
5483.34,0.03033
5460.2,0.02862
5437.06,0.03117
5413.91,0.02658
5390.77,0.02975
5367.62,0.03133
5344.48,0.02784
5321.33,0.02947
5298.19,0.02980
5275.04,0.03103
5251.9,0.02994
5228.75,0.03026
5205.61,0.03006
5182.46,0.02874
5159.32,0.03068
5136.18,0.03005
5113.03,0.03078
5089.89,0.03038
5066.74,0.02878
5043.6,0.02879
5020.45,0.02940
4997.31,0.03036
4974.16,0.03007
4951.02,0.03107
4927.87,0.03018
4904.73,0.02906
4881.58,0.02983
4858.44,0.02901
4835.3,0.03026
4812.15,0.03098
4789.01,0.02908
4765.86,0.02917
4742.72,0.02946
4719.57,0.02923
4696.43,0.02925
4673.28,0.02910
4650.14,0.02955
4626.99,0.03019
4603.85,0.03010
4580.7,0.02979
4557.56,0.02938
4534.42,0.03015
4511.27,0.02881
4488.13,0.02971
4464.98,0.03017
4441.84,0.02915
4418.69,0.02847
4395.55,0.03034
4372.4,0.03035
4349.26,0.02942
4326.11,0.02994
4302.97,0.02897
4279.82,0.02961
4256.68,0.03047
4233.54,0.02980
4210.39,0.02979
4187.25,0.02931
4164.1,0.03039
4140.96,0.02924
4117.81,0.02915
4094.67,0.02942
4071.52,0.03035
4048.38,0.03004
4025.23,0.02971
4002.09,0.02962
3978.94,0.02968
3955.8,0.02984
3932.66,0.03019
3909.51,0.02931
3886.37,0.02968
3863.22,0.02922
3840.08,0.02970
3816.93,0.03051
3793.79,0.03012
3770.64,0.02938
3747.5,0.02923
3724.35,0.02971
3701.21,0.02943
3678.06,0.02880
3654.92,0.02836
3631.78,0.02804
3608.63,0.02744
3585.49,0.02691
3562.34,0.02721
3539.2,0.02738
3516.05,0.02719
3492.91,0.02656
3469.76,0.02638
3446.62,0.02694
3423.47,0.02603
3400.33,0.02538
3377.18,0.02579
3354.04,0.02566
3330.9,0.02654
3307.75,0.02501
3284.61,0.02492
3261.46,0.02617
3238.32,0.02544
3215.17,0.02627
3192.03,0.02660
3168.88,0.02751
3145.74,0.02733
3122.59,0.02719
3099.45,0.02649
3076.3,0.02649
3053.16,0.02612
3030.02,0.02632
3006.87,0.02625
2983.73,0.02609
2960.58,0.02587
2937.44,0.02544
2914.29,0.02591
2891.15,0.02643
2868,0.02643
2844.86,0.02633
2821.71,0.02647
2798.57,0.02703
2775.42,0.02738
2752.28,0.02751
2729.14,0.02710
2705.99,0.02710
2682.85,0.02697
2659.7,0.02676
2636.56,0.02723
2613.41,0.02710
2590.27,0.02687
2567.12,0.02720
2543.98,0.02708
2520.83,0.02692
2497.69,0.02678
2474.55,0.02684
2451.4,0.02696
2428.26,0.02691
2405.11,0.02673
2381.97,0.02658
2358.82,0.02689
2335.68,0.02654
2312.53,0.02696
2289.39,0.02614
2266.24,0.02651
2243.1,0.02637
2219.95,0.02636
2196.81,0.02610
2173.67,0.02650
2150.52,0.02613
2127.38,0.02592
2104.23,0.02586
2081.09,0.02599
2057.94,0.02578
2034.8,0.02586
2011.65,0.02578
1988.51,0.02571
1965.36,0.02536
1942.22,0.02562
1919.07,0.02552
1895.93,0.02500
1872.79,0.02485
1849.64,0.02457
1826.5,0.02438
1803.35,0.02453
1780.21,0.02317
1757.06,0.02184
1733.92,0.02364
1710.77,0.02439
1687.63,0.02307
1664.48,0.02194
1641.34,0.02198
1618.19,0.02231
1595.05,0.02250
1571.91,0.02179
1548.76,0.02174
1525.62,0.02234
1502.47,0.02240
1479.33,0.02184
1456.18,0.02107
1433.04,0.02173
1409.89,0.02107
1386.75,0.02091
1363.6,0.02103
1340.46,0.02082
1317.31,0.01952
1294.17,0.02008
1271.03,0.02179
1247.88,0.02236
1224.74,0.02209
1201.59,0.02178
1178.45,0.02045
1155.3,0.01973
1132.16,0.02010
1109.01,0.02193
1085.87,0.02172
1062.72,0.02432
1039.58,0.02256
1016.43,0.02330
993.29,0.02440
970.145,0.02426
947,0.02298
923.856,0.02167
900.711,0.02227
877.567,0.02235
854.422,0.02110
831.277,0.02201
808.133,0.02076
784.988,0.01964
761.844,0.01946
738.699,0.01979
715.554,0.01866
692.41,0.01818
669.265,0.01842
646.12,0.01929
622.976,0.01782
599.831,0.01916

File: PEVA_0.10_IS_Trans_S_240819_R1.dpt
7496.91,0.94128
7473.76,0.92630
7450.62,0.95009
7427.47,0.94433
7404.33,0.92582
7381.18,0.91505
7358.04,0.92808
7334.89,0.93982
7311.75,0.91444
7288.61,0.92482
7265.46,0.94259
7242.32,0.89933
7219.17,0.91165
7196.03,0.90703
7172.88,0.92322
7149.74,0.91896
7126.59,0.91941
7103.45,0.91312
7080.3,0.91655
7057.16,0.92664
7034.02,0.93615
7010.87,0.93014
6987.73,0.92323
6964.58,0.92886
6941.44,0.93114
6918.29,0.92673
6895.15,0.93209
6872,0.93165
6848.86,0.93465
6825.71,0.94173
6802.57,0.92678
6779.43,0.94074
6756.28,0.93336
6733.14,0.92762
6709.99,0.94583
6686.85,0.93734
6663.7,0.94427
6640.56,0.93761
6617.41,0.94141
6594.27,0.93737
6571.12,0.94238
6547.98,0.94169
6524.84,0.93943
6501.69,0.93831
6478.55,0.92782
6455.4,0.93674
6432.26,0.93403
6409.11,0.94502
6385.97,0.93558
6362.82,0.95234
6339.68,0.93819
6316.53,0.93347
6293.39,0.93421
6270.24,0.93813
6247.1,0.93630
6223.96,0.93900
6200.81,0.93998
6177.67,0.93700
6154.52,0.93767
6131.38,0.93758
6108.23,0.93396
6085.09,0.93310
6061.94,0.93504
6038.8,0.92958
6015.65,0.93073
5992.51,0.92692
5969.37,0.92853
5946.22,0.92550
5923.08,0.92367
5899.93,0.91949
5876.79,0.90912
5853.64,0.88850
5830.5,0.86987
5807.35,0.84358
5784.21,0.79252
5761.06,0.82648
5737.92,0.87789
5714.78,0.88749
5691.63,0.87537
5668.49,0.85330
5645.34,0.88472
5622.2,0.89499
5599.05,0.89949
5575.91,0.89568
5552.76,0.89303
5529.62,0.89635
5506.47,0.88336
5483.33,0.89821
5460.19,0.88743
5437.04,0.88594
5413.9,0.87635
5390.75,0.90174
5367.61,0.90642
5344.46,0.87918
5321.32,0.91352
5298.17,0.90688
5275.03,0.91449
5251.88,0.90249
5228.74,0.90047
5205.6,0.89176
5182.45,0.90721
5159.31,0.91130
5136.16,0.91799
5113.02,0.91913
5089.87,0.91671
5066.73,0.91883
5043.58,0.92078
5020.44,0.91817
4997.29,0.91745
4974.15,0.91808
4951.01,0.91823
4927.86,0.92046
4904.72,0.92088
4881.57,0.91915
4858.43,0.92028
4835.28,0.92354
4812.14,0.92175
4788.99,0.92555
4765.85,0.92745
4742.7,0.92378
4719.56,0.92700
4696.42,0.92903
4673.27,0.92465
4650.13,0.92714
4626.98,0.92932
4603.84,0.92461
4580.69,0.92641
4557.55,0.92507
4534.4,0.92004
4511.26,0.92228
4488.11,0.91530
4464.97,0.90659
4441.83,0.90091
4418.68,0.88116
4395.54,0.83680
4372.39,0.78544
4349.25,0.67114
4326.1,0.40205
4302.96,0.72371
4279.81,0.71060
4256.67,0.53026
4233.52,0.67246
4210.38,0.64108
4187.24,0.58533
4164.09,0.59697
4140.95,0.60375
4117.8,0.61828
4094.66,0.62213
4071.51,0.69629
4048.37,0.73092
4025.22,0.74119
4002.08,0.78552
3978.93,0.78444
3955.79,0.78968
3932.65,0.76293
3909.5,0.77490
3886.36,0.75128
3863.21,0.74211
3840.07,0.72620
3816.92,0.74169
3793.78,0.80611
3770.63,0.79917
3747.49,0.73633
3724.34,0.75888
3701.2,0.78375
3678.06,0.76019
3654.91,0.77199
3631.77,0.75773
3608.62,0.70920
3585.48,0.81049
3562.33,0.84788
3539.19,0.88211
3516.04,0.88959
3492.9,0.88452
3469.75,0.87970
3446.61,0.86422
3423.47,0.86554
3400.32,0.86879
3377.18,0.86472
3354.03,0.86534
3330.89,0.87421
3307.74,0.87654
3284.6,0.87459
3261.45,0.87437
3238.31,0.87358
3215.16,0.85955
3192.02,0.84893
3168.87,0.83999
3145.73,0.82443
3122.59,0.79163
3099.44,0.72112
3076.3,0.61896
3053.15,0.54487
3030.01,0.42450
3006.86,0.32240
2983.72,0.14371
2960.57,0.00146
2937.43,0.00078
2914.28,0.00123
2891.14,0.00042
2868,0.00142
2844.85,0.00121
2821.71,0.04085
2798.56,0.17731
2775.42,0.35654
2752.27,0.44184
2729.13,0.45503
2705.98,0.50482
2682.84,0.48670
2659.69,0.46500
2636.55,0.47889
2613.41,0.56896
2590.26,0.64370
2567.12,0.71651
2543.97,0.75463
2520.83,0.77459
2497.68,0.81519
2474.54,0.82674
2451.39,0.84847
2428.25,0.84180
2405.1,0.83939
2381.96,0.77266
2358.82,0.45744
2335.67,0.49876
2312.53,0.64801
2289.38,0.80011
2266.24,0.83385
2243.09,0.84921
2219.95,0.87230
2196.8,0.87136
2173.66,0.87129
2150.51,0.86253
2127.37,0.88074
2104.23,0.88819
2081.08,0.88746
2057.94,0.86429
2034.79,0.84076
2011.65,0.84227
1988.5,0.87465
1965.36,0.88168
1942.21,0.87249
1919.07,0.84988
1895.92,0.84118
1872.78,0.88767
1849.64,0.87953
1826.49,0.86822
1803.35,0.87395
1780.2,0.85170
1757.06,0.83461
1733.91,0.76352
1710.77,0.77911
1687.62,0.82043
1664.48,0.83488
1641.33,0.80458
1618.19,0.80988
1595.05,0.81731
1571.9,0.77822
1548.76,0.77787
1525.61,0.70878
1502.47,0.65182
1479.32,0.27945
1456.18,0.01938
1433.03,0.30635
1409.89,0.70292
1386.74,0.64293
1363.6,0.40707
1340.46,0.57931
1317.31,0.60030
1294.17,0.59587
1271.02,0.66617
1247.88,0.71421
1224.73,0.76472
1201.59,0.76636
1178.44,0.74059
1155.3,0.76407
1132.15,0.77556
1109.01,0.76101
1085.87,0.73801
1062.72,0.76052
1039.58,0.76594
1016.43,0.72836
993.287,0.82156
970.142,0.79854
946.998,0.85004
923.853,0.84689
900.709,0.82453
877.564,0.86474
854.42,0.85173
831.275,0.82411
808.131,0.84013
784.986,0.78079
761.842,0.71119
738.697,0.50998
715.552,0.13386
692.408,0.77574
669.263,0.73881
646.119,0.83386
622.974,0.89911
599.83,0.94651

File: PEVA_0.10_IS_Trans_S_240819_R2.dpt
7496.91,0.93822
7473.76,0.94288
7450.62,0.93474
7427.47,0.94925
7404.33,0.94021
7381.18,0.94311
7358.04,0.93376
7334.89,0.94143
7311.75,0.92887
7288.61,0.94281
7265.46,0.92752
7242.32,0.92829
7219.17,0.92225
7196.03,0.92468
7172.88,0.92843
7149.74,0.92452
7126.59,0.93189
7103.45,0.93406
7080.3,0.92947
7057.16,0.91667
7034.02,0.93522
7010.87,0.92083
6987.73,0.93396
6964.58,0.91969
6941.44,0.93069
6918.29,0.93326
6895.15,0.93400
6872,0.93507
6848.86,0.92440
6825.71,0.93598
6802.57,0.93607
6779.43,0.93123
6756.28,0.93494
6733.14,0.93939
6709.99,0.94153
6686.85,0.93938
6663.7,0.93880
6640.56,0.93417
6617.41,0.93987
6594.27,0.94175
6571.12,0.94016
6547.98,0.93813
6524.84,0.92962
6501.69,0.93248
6478.55,0.94355
6455.4,0.94024
6432.26,0.93944
6409.11,0.94452
6385.97,0.94247
6362.82,0.94750
6339.68,0.94167
6316.53,0.93803
6293.39,0.94137
6270.24,0.94054
6247.1,0.93887
6223.96,0.94189
6200.81,0.93588
6177.67,0.93983
6154.52,0.93766
6131.38,0.93380
6108.23,0.93150
6085.09,0.93570
6061.94,0.93165
6038.8,0.92803
6015.65,0.93135
5992.51,0.92802
5969.37,0.92427
5946.22,0.93084
5923.08,0.92451
5899.93,0.92118
5876.79,0.90888
5853.64,0.89343
5830.5,0.87040
5807.35,0.84503
5784.21,0.79348
5761.06,0.82718
5737.92,0.87227
5714.78,0.89167
5691.63,0.87726
5668.49,0.85107
5645.34,0.88335
5622.2,0.89320
5599.05,0.89803
5575.91,0.90119
5552.76,0.89423
5529.62,0.89570
5506.47,0.89664
5483.33,0.89800
5460.19,0.89602
5437.04,0.90145
5413.9,0.89603
5390.75,0.90972
5367.61,0.91178
5344.46,0.90371
5321.32,0.91905
5298.17,0.91814
5275.03,0.91594
5251.88,0.91359
5228.74,0.91209
5205.6,0.90835
5182.45,0.91707
5159.31,0.91593
5136.16,0.91834
5113.02,0.92098
5089.87,0.91945
5066.73,0.91900
5043.58,0.92302
5020.44,0.92100
4997.29,0.92045
4974.15,0.92066
4951.01,0.91945
4927.86,0.92023
4904.72,0.92347
4881.57,0.91835
4858.43,0.92228
4835.28,0.92468
4812.14,0.92340
4788.99,0.92679
4765.85,0.92921
4742.7,0.92664
4719.56,0.92913
4696.42,0.93127
4673.27,0.92625
4650.13,0.93091
4626.98,0.92969
4603.84,0.92710
4580.69,0.92834
4557.55,0.92577
4534.4,0.92215
4511.26,0.92174
4488.11,0.91793
4464.97,0.90999
4441.83,0.90134
4418.68,0.88207
4395.54,0.83910
4372.39,0.78576
4349.25,0.67367
4326.1,0.40504
4302.96,0.72387
4279.81,0.71278
4256.67,0.53311
4233.52,0.67411
4210.38,0.64361
4187.24,0.58758
4164.09,0.59801
4140.95,0.60735
4117.8,0.62028
4094.66,0.62373
4071.51,0.70006
4048.37,0.73262
4025.22,0.74503
4002.08,0.79009
3978.93,0.78697
3955.79,0.79677
3932.65,0.78088
3909.5,0.78041
3886.36,0.77590
3863.21,0.78118
3840.07,0.77731
3816.92,0.78512
3793.78,0.82053
3770.63,0.82170
3747.49,0.80620
3724.34,0.81949
3701.2,0.81949
3678.06,0.80593
3654.91,0.79986
3631.77,0.80104
3608.62,0.74804
3585.48,0.84616
3562.33,0.87357
3539.19,0.89346
3516.04,0.89741
3492.9,0.89142
3469.75,0.88664
3446.61,0.87571
3423.47,0.87434
3400.32,0.87501
3377.18,0.86848
3354.03,0.86952
3330.89,0.87767
3307.74,0.88016
3284.6,0.87755
3261.45,0.87730
3238.31,0.87644
3215.16,0.86469
3192.02,0.85129
3168.87,0.84248
3145.73,0.82773
3122.59,0.79807
3099.44,0.72688
3076.3,0.62214
3053.15,0.54676
3030.01,0.42811
3006.86,0.32480
2983.72,0.14543
2960.57,0.00147
2937.43,0.00075
2914.28,0.00052
2891.14,0.00068
2868,0.00110
2844.85,0.00041
2821.71,0.04186
2798.56,0.17882
2775.42,0.35834
2752.27,0.44376
2729.13,0.45657
2705.98,0.50727
2682.84,0.48972
2659.69,0.46704
2636.55,0.48035
2613.41,0.57199
2590.26,0.64615
2567.12,0.71645
2543.97,0.75623
2520.83,0.77846
2497.68,0.81511
2474.54,0.82760
2451.39,0.85218
2428.25,0.84262
2405.1,0.83869
2381.96,0.83142
2358.82,0.73395
2335.67,0.70891
2312.53,0.76974
2289.38,0.82231
2266.24,0.84567
2243.09,0.85518
2219.95,0.87200
2196.8,0.87223
2173.66,0.87451
2150.51,0.86283
2127.37,0.88186
2104.23,0.89162
2081.08,0.88616
2057.94,0.86674
2034.79,0.84365
2011.65,0.84155
1988.5,0.88265
1965.36,0.89081
1942.21,0.88136
1919.07,0.86548
1895.92,0.84897
1872.78,0.89127
1849.64,0.89218
1826.49,0.89131
1803.35,0.88384
1780.2,0.87701
1757.06,0.85908
1733.91,0.80904
1710.77,0.80860
1687.62,0.86062
1664.48,0.85226
1641.33,0.83222
1618.19,0.83762
1595.05,0.82339
1571.9,0.81263
1548.76,0.80833
1525.61,0.75453
1502.47,0.67794
1479.32,0.28497
1456.18,0.02109
1433.03,0.31303
1409.89,0.70591
1386.74,0.66405
1363.6,0.41572
1340.46,0.58999
1317.31,0.61727
1294.17,0.59509
1271.02,0.66524
1247.88,0.72878
1224.73,0.75987
1201.59,0.76154
1178.44,0.75786
1155.3,0.75822
1132.15,0.77159
1109.01,0.77884
1085.87,0.72816
1062.72,0.75952
1039.58,0.78210
1016.43,0.71589
993.287,0.82508
970.142,0.81762
946.998,0.82969
923.853,0.85427
900.709,0.84078
877.564,0.84302
854.42,0.86227
831.275,0.84082
808.131,0.81855
784.986,0.79115
761.842,0.72610
738.697,0.50990
715.552,0.13467
692.408,0.79095
669.263,0.85344
646.119,0.90200
622.974,0.88313
599.83,0.94432