Folder: fsri_materials_database/01_Data/PEVA/FTIR/IS (part 15)

File: PEVA_0.18_IS_Trans_T_240819_R6.dpt
7496.91,0.02115
7473.76,0.02427
7450.62,0.01773
7427.47,0.01788
7404.33,0.02917
7381.18,0.01712
7358.04,0.03064
7334.89,0.01680
7311.75,0.04905
7288.61,0.01696
7265.46,0.01066
7242.32,0.01175
7219.17,0.00964
7196.03,0.01496
7172.88,0.01136
7149.74,0.00825
7126.59,0.01472
7103.45,0.01159
7080.3,0.02512
7057.16,0.02740
7034.02,0.00673
7010.87,0.02674
6987.73,0.00910
6964.58,0.01570
6941.44,0.01956
6918.29,0.01877
6895.15,0.00996
6872,0.01092
6848.86,0.02729
6825.71,0.02077
6802.57,0.01713
6779.43,0.01259
6756.28,0.01307
6733.14,0.00889
6709.99,0.01185
6686.85,0.01132
6663.7,0.00274
6640.56,0.01042
6617.41,0.01703
6594.27,0.00380
6571.12,0.01242
6547.98,0.00778
6524.84,0.00155
6501.69,0.00989
6478.55,0.00625
6455.4,0.00721
6432.26,0.00596
6409.11,0.00018
6385.97,0.00654
6362.82,0.01101
6339.68,0.01002
6316.53,0.00796
6293.39,0.00853
6270.24,0.00608
6247.1,0.00672
6223.96,0.00444
6200.81,0.00382
6177.67,0.00677
6154.52,0.00743
6131.38,0.01277
6108.23,0.00309
6085.09,0.00512
6061.94,0.00595
6038.8,0.00420
6015.65,0.00039
5992.51,-0.00109
5969.37,0.00679
5946.22,0.00392
5923.08,0.00705
5899.93,0.00713
5876.79,0.00313
5853.64,0.00098
5830.5,0.00548
5807.35,0.00518
5784.21,0.00262
5761.06,0.00421
5737.92,0.00421
5714.78,0.00612
5691.63,0.00425
5668.49,0.00506
5645.34,0.00352
5622.2,0.00460
5599.05,-0.00007
5575.91,0.00272
5552.76,0.00020
5529.62,0.00401
5506.47,0.00030
5483.33,0.00281
5460.19,0.00619
5437.04,0.00396
5413.9,0.00299
5390.75,0.00443
5367.61,0.00489
5344.46,0.00268
5321.32,0.00293
5298.17,0.00200
5275.03,0.00222
5251.88,0.00165
5228.74,0.00096
5205.6,0.00247
5182.45,0.00574
5159.31,0.00256
5136.16,0.00066
5113.02,0.00188
5089.87,0.00202
5066.73,0.00338
5043.58,0.00195
5020.44,0.00095
4997.29,0.00241
4974.15,0.00208
4951.01,0.00337
4927.86,0.00252
4904.72,0.00304
4881.57,0.00208
4858.43,0.00173
4835.28,0.00171
4812.14,0.00158
4788.99,0.00023
4765.85,0.00028
4742.7,0.00250
4719.56,0.00243
4696.42,-0.00002
4673.27,0.00188
4650.13,0.00123
4626.98,0.00134
4603.84,0.00097
4580.69,0.00117
4557.55,0.00266
4534.4,0.00215
4511.26,0.00060
4488.11,0.00152
4464.97,-0.00068
4441.83,0.00217
4418.68,0.00143
4395.54,0.00195
4372.39,0.00076
4349.25,0.00042
4326.1,0.00298
4302.96,0.00011
4279.81,0.00158
4256.67,0.00210
4233.52,0.00098
4210.38,0.00096
4187.24,0.00048
4164.09,0.00096
4140.95,0.00149
4117.8,0.00175
4094.66,0.00149
4071.51,0.00041
4048.37,0.00037
4025.22,0.00075
4002.08,0.00108
3978.93,0.00091
3955.79,0.00085
3932.65,0.00123
3909.5,0.00125
3886.36,0.00115
3863.21,0.00212
3840.07,0.00122
3816.92,0.00207
3793.78,0.00151
3770.63,0.00169
3747.49,0.00135
3724.34,0.00096
3701.2,0.00076
3678.06,0.00135
3654.91,0.00134
3631.77,0.00152
3608.62,0.00180
3585.48,0.00119
3562.33,0.00136
3539.19,0.00097
3516.04,0.00225
3492.9,0.00078
3469.75,0.00046
3446.61,0.00105
3423.47,0.00203
3400.32,0.00113
3377.18,0.00132
3354.03,0.00199
3330.89,0.00131
3307.74,0.00097
3284.6,0.00192
3261.45,0.00094
3238.31,0.00080
3215.16,0.00286
3192.02,0.00003
3168.87,0.00083
3145.73,0.00054
3122.59,0.00168
3099.44,0.00103
3076.3,0.00086
3053.15,0.00145
3030.01,0.00075
3006.86,0.00031
2983.72,0.00094
2960.57,0.00072
2937.43,0.00097
2914.28,0.00064
2891.14,0.00092
2868,0.00139
2844.85,0.00102
2821.71,0.00038
2798.56,0.00087
2775.42,0.00061
2752.27,0.00077
2729.13,0.00085
2705.98,0.00042
2682.84,0.00050
2659.69,0.00081
2636.55,0.00021
2613.41,0.00038
2590.26,0.00052
2567.12,0.00020
2543.97,0.00056
2520.83,0.00048
2497.68,0.00046
2474.54,0.00072
2451.39,0.00020
2428.25,0.00096
2405.1,0.00069
2381.96,0.00007
2358.82,0.00135
2335.67,0.00123
2312.53,0.00075
2289.38,0.00048
2266.24,0.00032
2243.09,0.00122
2219.95,0.00068
2196.8,0.00024
2173.66,0.00105
2150.51,0.00077
2127.37,0.00099
2104.23,0.00049
2081.08,0.00045
2057.94,0.00018
2034.79,0.00083
2011.65,0.00033
1988.5,0.00076
1965.36,0.00063
1942.21,0.00072
1919.07,0.00063
1895.92,0.00028
1872.78,0.00062
1849.64,0.00074
1826.49,0.00056
1803.35,0.00076
1780.2,-0.00002
1757.06,0.00081
1733.91,0.00100
1710.77,0.00125
1687.62,0.00058
1664.48,0.00039
1641.33,0.00051
1618.19,0.00066
1595.05,0.00023
1571.9,0.00097
1548.76,0.00097
1525.61,0.00111
1502.47,0.00027
1479.32,0.00121
1456.18,0.00158
1433.03,0.00048
1409.89,0.00073
1386.74,0.00030
1363.6,0.00079
1340.46,0.00017
1317.31,0.00029
1294.17,0.00040
1271.02,0.00031
1247.88,0.00088
1224.73,0.00083
1201.59,0.00063
1178.44,0.00092
1155.3,0.00089
1132.15,0.00074
1109.01,0.00158
1085.87,0.00136
1062.72,0.00114
1039.58,0.00112
1016.43,0.00139
993.287,0.00054
970.142,0.00093
946.998,-0.00013
923.853,0.00136
900.709,0.00137
877.564,0.00122
854.42,0.00147
831.275,0.00082
808.131,0.00055
784.986,0.00085
761.842,0.00130
738.697,0.00098
715.552,0.00075
692.408,0.00141
669.263,0.00160
646.119,0.00033
622.974,0.00264
599.83,0.00204

File: PEVA_0.18_IS_Trans_T_240819_R7.dpt
7496.91,0.02836
7473.76,0.00494
7450.62,0.01901
7427.47,0.01748
7404.33,0.01326
7381.18,0.02925
7358.04,0.02672
7334.89,0.01174
7311.75,0.01002
7288.61,0.00356
7265.46,0.02148
7242.32,0.00152
7219.17,0.01438
7196.03,0.01549
7172.88,0.01127
7149.74,0.00656
7126.59,0.01208
7103.45,0.02432
7080.3,0.02401
7057.16,0.02243
7034.02,0.03016
7010.87,-0.00199
6987.73,0.01726
6964.58,0.00435
6941.44,0.01546
6918.29,0.00351
6895.15,0.02042
6872,0.01802
6848.86,0.00832
6825.71,0.01128
6802.57,0.01393
6779.43,0.00348
6756.28,0.00277
6733.14,0.00266
6709.99,0.01000
6686.85,0.00826
6663.7,0.00731
6640.56,0.00557
6617.41,0.01840
6594.27,0.01212
6571.12,0.00092
6547.98,0.01638
6524.84,0.00628
6501.69,0.01781
6478.55,0.00148
6455.4,0.01073
6432.26,0.01105
6409.11,0.01363
6385.97,0.00476
6362.82,0.00923
6339.68,0.00770
6316.53,0.01488
6293.39,0.00023
6270.24,0.00221
6247.1,0.00751
6223.96,0.00641
6200.81,0.00660
6177.67,0.00140
6154.52,0.00544
6131.38,0.00384
6108.23,0.00831
6085.09,0.00923
6061.94,0.00544
6038.8,0.00391
6015.65,0.00988
5992.51,0.00953
5969.37,0.00825
5946.22,0.00596
5923.08,0.00395
5899.93,0.00228
5876.79,0.00444
5853.64,0.00521
5830.5,0.00476
5807.35,0.00273
5784.21,0.00918
5761.06,0.00621
5737.92,0.00072
5714.78,0.00266
5691.63,0.00387
5668.49,0.00348
5645.34,0.00518
5622.2,0.00300
5599.05,0.00300
5575.91,0.00698
5552.76,0.00056
5529.62,0.00120
5506.47,0.00381
5483.33,0.00186
5460.19,0.00019
5437.04,0.00167
5413.9,0.00477
5390.75,0.00598
5367.61,0.00380
5344.46,0.00449
5321.32,0.00297
5298.17,0.00094
5275.03,0.00015
5251.88,0.00466
5228.74,0.00416
5205.6,0.00122
5182.45,0.00482
5159.31,0.00296
5136.16,0.00260
5113.02,0.00351
5089.87,0.00386
5066.73,0.00478
5043.58,0.00297
5020.44,0.00011
4997.29,0.00077
4974.15,0.00315
4951.01,0.00065
4927.86,0.00081
4904.72,0.00224
4881.57,0.00019
4858.43,0.00203
4835.28,0.00190
4812.14,0.00102
4788.99,0.00171
4765.85,0.00084
4742.7,0.00252
4719.56,0.00220
4696.42,0.00098
4673.27,0.00154
4650.13,0.00200
4626.98,0.00191
4603.84,0.00417
4580.69,0.00233
4557.55,0.00155
4534.4,0.00274
4511.26,0.00215
4488.11,0.00100
4464.97,0.00090
4441.83,0.00157
4418.68,0.00171
4395.54,0.00095
4372.39,0.00212
4349.25,0.00139
4326.1,0.00071
4302.96,0.00070
4279.81,0.00136
4256.67,-0.00043
4233.52,0.00050
4210.38,0.00200
4187.24,0.00115
4164.09,0.00031
4140.95,0.00213
4117.8,0.00039
4094.66,0.00024
4071.51,0.00089
4048.37,0.00164
4025.22,0.00095
4002.08,0.00082
3978.93,0.00108
3955.79,0.00107
3932.65,0.00145
3909.5,0.00115
3886.36,0.00149
3863.21,0.00240
3840.07,0.00039
3816.92,0.00186
3793.78,0.00067
3770.63,0.00231
3747.49,0.00152
3724.34,0.00299
3701.2,0.00175
3678.06,0.00104
3654.91,0.00068
3631.77,0.00100
3608.62,0.00162
3585.48,0.00111
3562.33,0.00039
3539.19,0.00110
3516.04,0.00169
3492.9,0.00123
3469.75,0.00101
3446.61,0.00026
3423.47,0.00167
3400.32,0.00004
3377.18,0.00063
3354.03,0.00260
3330.89,0.00136
3307.74,0.00230
3284.6,0.00158
3261.45,0.00143
3238.31,0.00177
3215.16,0.00272
3192.02,0.00119
3168.87,0.00180
3145.73,0.00200
3122.59,0.00072
3099.44,0.00129
3076.3,0.00113
3053.15,0.00133
3030.01,0.00050
3006.86,0.00048
2983.72,0.00045
2960.57,0.00082
2937.43,0.00012
2914.28,0.00056
2891.14,0.00085
2868,0.00127
2844.85,0.00117
2821.71,-0.00035
2798.56,0.00089
2775.42,0.00056
2752.27,0.00093
2729.13,0.00011
2705.98,0.00055
2682.84,0.00057
2659.69,0.00111
2636.55,0.00042
2613.41,0.00061
2590.26,0.00050
2567.12,0.00050
2543.97,0.00098
2520.83,0.00034
2497.68,0.00076
2474.54,0.00094
2451.39,0.00059
2428.25,0.00077
2405.1,0.00028
2381.96,0.00029
2358.82,0.00137
2335.67,0.00132
2312.53,0.00062
2289.38,-0.00015
2266.24,0.00027
2243.09,0.00103
2219.95,0.00066
2196.8,0.00066
2173.66,0.00055
2150.51,0.00010
2127.37,0.00073
2104.23,0.00043
2081.08,-0.00001
2057.94,0.00086
2034.79,0.00067
2011.65,0.00085
1988.5,0.00024
1965.36,0.00029
1942.21,0.00034
1919.07,0.00047
1895.92,0.00036
1872.78,0.00037
1849.64,0.00062
1826.49,0.00103
1803.35,0.00030
1780.2,0.00072
1757.06,0.00125
1733.91,0.00116
1710.77,0.00041
1687.62,0.00123
1664.48,0.00050
1641.33,0.00086
1618.19,0.00081
1595.05,0.00046
1571.9,0.00115
1548.76,0.00094
1525.61,0.00054
1502.47,0.00025
1479.32,0.00044
1456.18,0.00043
1433.03,0.00048
1409.89,0.00037
1386.74,0.00121
1363.6,0.00033
1340.46,-0.00002
1317.31,-0.00001
1294.17,0.00047
1271.02,0.00031
1247.88,0.00067
1224.73,0.00094
1201.59,0.00105
1178.44,0.00009
1155.3,0.00035
1132.15,0.00059
1109.01,0.00122
1085.87,0.00010
1062.72,0.00131
1039.58,0.00186
1016.43,0.00087
993.287,0.00011
970.142,0.00060
946.998,0.00102
923.853,0.00057
900.709,0.00182
877.564,0.00168
854.42,0.00148
831.275,0.00200
808.131,0.00122
784.986,0.00202
761.842,0.00054
738.697,0.00107
715.552,0.00040
692.408,0.00087
669.263,0.00287
646.119,0.00207
622.974,0.00210
599.83,0.00343

File: PEVA_0.26_IS_S_240809_R1.dpt
7497.2,0.10565
7474.05,0.10509
7450.91,0.10125
7427.76,0.10363
7404.62,0.09574
7381.47,0.10765
7358.33,0.10222
7335.18,0.10924
7312.04,0.10066
7288.89,0.10005
7265.75,0.09649
7242.6,0.10177
7219.45,0.09846
7196.31,0.10039
7173.16,0.09927
7150.02,0.09851
7126.87,0.09824
7103.73,0.10470
7080.58,0.09951
7057.44,0.09897
7034.29,0.09121
7011.15,0.10333
6988,0.10403
6964.85,0.09832
6941.71,0.09929
6918.56,0.10742
6895.42,0.09719
6872.27,0.10817
6849.13,0.09833
6825.98,0.09461
6802.84,0.10480
6779.69,0.10246
6756.55,0.09988
6733.4,0.10113
6710.25,0.10512
6687.11,0.10373
6663.96,0.09993
6640.82,0.10584
6617.67,0.10313
6594.53,0.10269
6571.38,0.10137
6548.24,0.10037
6525.09,0.10261
6501.95,0.10283
6478.8,0.10147
6455.65,0.10291
6432.51,0.10051
6409.36,0.09975
6386.22,0.10181
6363.07,0.10471
6339.93,0.10768
6316.78,0.10192
6293.64,0.10271
6270.49,0.09883
6247.34,0.10581
6224.2,0.10296
6201.05,0.09814
6177.91,0.10365
6154.76,0.09748
6131.62,0.10568
6108.47,0.09902
6085.33,0.10379
6062.18,0.10110
6039.04,0.09851
6015.89,0.09459
5992.74,0.09992
5969.6,0.09939
5946.45,0.09900
5923.31,0.10012
5900.16,0.09709
5877.02,0.09512
5853.87,0.08746
5830.73,0.08568
5807.58,0.08810
5784.44,0.09500
5761.29,0.09484
5738.14,0.09510
5715,0.09384
5691.85,0.09539
5668.71,0.09500
5645.56,0.09841
5622.42,0.09575
5599.27,0.09897
5576.13,0.09685
5552.98,0.09947
5529.84,0.09803
5506.69,0.09919
5483.54,0.09815
5460.4,0.09830
5437.25,0.10084
5414.11,0.09963
5390.96,0.09887
5367.82,0.10060
5344.67,0.09935
5321.53,0.10187
5298.38,0.10175
5275.24,0.10252
5252.09,0.10072
5228.94,0.10230
5205.8,0.10191
5182.65,0.10227
5159.51,0.10141
5136.36,0.10151
5113.22,0.10120
5090.07,0.10108
5066.93,0.10304
5043.78,0.10335
5020.64,0.10288
4997.49,0.10184
4974.34,0.10239
4951.2,0.10166
4928.05,0.10232
4904.91,0.10317
4881.76,0.10296
4858.62,0.10329
4835.47,0.10346
4812.33,0.10376
4789.18,0.10316
4766.04,0.10254
4742.89,0.10332
4719.74,0.10260
4696.6,0.10027
4673.45,0.10085
4650.31,0.10175
4627.16,0.09991
4604.02,0.10151
4580.87,0.10164
4557.73,0.10297
4534.58,0.10147
4511.44,0.10085
4488.29,0.09940
4465.14,0.09819
4442,0.09439
4418.85,0.08758
4395.71,0.08119
4372.56,0.07683
4349.42,0.07078
4326.27,0.06897
4303.13,0.07314
4279.98,0.07308
4256.84,0.07439
4233.69,0.07397
4210.54,0.07375
4187.4,0.07559
4164.25,0.07474
4141.11,0.07799
4117.96,0.08045
4094.82,0.07814
4071.67,0.07699
4048.53,0.08231
4025.38,0.08221
4002.24,0.08428
3979.09,0.08648
3955.94,0.08870
3932.8,0.08786
3909.65,0.08910
3886.51,0.08957
3863.36,0.08896
3840.22,0.08991
3817.07,0.09114
3793.93,0.09217
3770.78,0.09233
3747.64,0.09311
3724.49,0.09403
3701.34,0.09187
3678.2,0.08600
3655.05,0.08621
3631.91,0.08692
3608.76,0.08426
3585.62,0.08156
3562.47,0.07843
3539.33,0.07701
3516.18,0.07545
3493.04,0.07252
3469.89,0.06969
3446.74,0.06766
3423.6,0.06478
3400.45,0.06818
3377.31,0.07144
3354.16,0.07270
3331.02,0.07144
3307.87,0.06648
3284.73,0.07044
3261.58,0.07484
3238.44,0.07633
3215.29,0.07546
3192.14,0.07451
3169,0.07482
3145.85,0.07410
3122.71,0.07175
3099.56,0.06824
3076.42,0.06492
3053.27,0.06282
3030.13,0.06152
3006.98,0.05881
2983.84,0.05643
2960.69,0.05864
2937.54,0.05924
2914.4,0.06231
2891.25,0.06226
2868.11,0.06153
2844.96,0.06317
2821.82,0.06210
2798.67,0.06426
2775.53,0.06791
2752.38,0.06869
2729.24,0.06753
2706.09,0.07178
2682.94,0.07212
2659.8,0.07365
2636.65,0.07419
2613.51,0.07300
2590.36,0.07352
2567.22,0.07393
2544.07,0.07483
2520.93,0.07626
2497.78,0.07901
2474.64,0.07993
2451.49,0.08046
2428.34,0.07864
2405.2,0.07597
2382.05,0.07437
2358.91,0.07751
2335.76,0.08134
2312.62,0.08280
2289.47,0.08088
2266.33,0.08080
2243.18,0.08072
2220.04,0.08103
2196.89,0.08347
2173.74,0.08563
2150.6,0.08484
2127.45,0.08363
2104.31,0.08282
2081.16,0.08185
2058.02,0.08232
2034.87,0.08375
2011.73,0.08503
1988.58,0.08224
1965.44,0.07802
1942.29,0.07296
1919.14,0.07961
1896,0.08077
1872.85,0.08089
1849.71,0.07663
1826.56,0.06684
1803.42,0.06691
1780.27,0.06108
1757.13,0.05496
1733.98,0.04992
1710.84,0.06960
1687.69,0.06164
1664.54,0.06118
1641.4,0.06115
1618.25,0.06344
1595.11,0.06417
1571.96,0.05951
1548.82,0.06042
1525.67,0.05991
1502.53,0.05640
1479.38,0.05465
1456.24,0.05732
1433.09,0.05593
1409.94,0.05607
1386.8,0.05421
1363.65,0.05481
1340.51,0.05239
1317.36,0.05257
1294.22,0.04804
1271.07,0.06517
1247.93,0.07246
1224.78,0.06836
1201.64,0.06319
1178.49,0.06043
1155.34,0.05902
1132.2,0.05374
1109.05,0.06425
1085.91,0.06711
1062.76,0.06452
1039.62,0.06180
1016.47,0.06504
993.326,0.06117
970.18,0.06206
947.035,0.06440
923.89,0.06295
900.744,0.06281
877.599,0.06158
854.453,0.06235
831.308,0.06136
808.162,0.06308
785.017,0.06095
761.871,0.05912
738.726,0.05159
715.58,0.06187
692.435,0.05935
669.29,0.06056
646.144,0.05680
622.999,0.06084
599.853,0.06776

File: PEVA_0.26_IS_S_240809_R2.dpt
7497.2,0.11013
7474.05,0.10419
7450.91,0.10388
7427.76,0.09009
7404.62,0.09498
7381.47,0.10539
7358.33,0.10079
7335.18,0.10336
7312.04,0.09825
7288.89,0.10967
7265.75,0.11526
7242.6,0.10860
7219.45,0.10195
7196.31,0.10653
7173.16,0.10306
7150.02,0.09484
7126.87,0.10162
7103.73,0.10282
7080.58,0.09864
7057.44,0.10531
7034.29,0.09946
7011.15,0.10574
6988,0.10304
6964.85,0.09808
6941.71,0.09600
6918.56,0.10307
6895.42,0.10024
6872.27,0.10076
6849.13,0.10031
6825.98,0.10576
6802.84,0.10042
6779.69,0.09690
6756.55,0.09924
6733.4,0.09873
6710.25,0.10110
6687.11,0.10122
6663.96,0.10724
6640.82,0.10661
6617.67,0.10322
6594.53,0.09776
6571.38,0.10114
6548.24,0.10828
6525.09,0.10586
6501.95,0.10097
6478.8,0.10397
6455.65,0.09814
6432.51,0.10039
6409.36,0.10156
6386.22,0.10098
6363.07,0.09910
6339.93,0.10331
6316.78,0.09698
6293.64,0.09733
6270.49,0.10202
6247.34,0.10016
6224.2,0.10299
6201.05,0.10108
6177.91,0.10272
6154.76,0.10280
6131.62,0.09978
6108.47,0.10263
6085.33,0.10470
6062.18,0.10022
6039.04,0.09891
6015.89,0.09848
5992.74,0.09913
5969.6,0.09857
5946.45,0.09939
5923.31,0.09881
5900.16,0.09486
5877.02,0.09214
5853.87,0.08763
5830.73,0.08602
5807.58,0.09052
5784.44,0.09034
5761.29,0.09328
5738.14,0.09296
5715,0.09134
5691.85,0.09378
5668.71,0.09477
5645.56,0.09554
5622.42,0.09860
5599.27,0.09724
5576.13,0.09667
5552.98,0.09933
5529.84,0.09810
5506.69,0.09829
5483.54,0.09798
5460.4,0.09947
5437.25,0.09974
5414.11,0.09700
5390.96,0.10074
5367.82,0.09975
5344.67,0.09765
5321.53,0.09995
5298.38,0.10216
5275.24,0.10039
5252.09,0.09998
5228.94,0.10080
5205.8,0.09940
5182.65,0.10104
5159.51,0.10128
5136.36,0.10088
5113.22,0.10234
5090.07,0.10062
5066.93,0.10065
5043.78,0.10222
5020.64,0.10217
4997.49,0.10173
4974.34,0.10328
4951.2,0.10246
4928.05,0.10230
4904.91,0.10133
4881.76,0.10162
4858.62,0.10141
4835.47,0.10248
4812.33,0.10210
4789.18,0.10056
4766.04,0.10093
4742.89,0.10212
4719.74,0.10098
4696.6,0.09982
4673.45,0.10020
4650.31,0.10174
4627.16,0.09876
4604.02,0.10176
4580.87,0.10077
4557.73,0.10164
4534.58,0.10096
4511.44,0.10015
4488.29,0.09919
4465.14,0.09750
4442,0.09387
4418.85,0.08589
4395.71,0.08104
4372.56,0.07553
4349.42,0.06971
4326.27,0.06846
4303.13,0.07286
4279.98,0.07287
4256.84,0.07426
4233.69,0.07397
4210.54,0.07242
4187.4,0.07574
4164.25,0.07357
4141.11,0.07785
4117.96,0.07928
4094.82,0.07711
4071.67,0.07670
4048.53,0.08209
4025.38,0.08263
4002.24,0.08336
3979.09,0.08568
3955.94,0.08774
3932.8,0.08714
3909.65,0.08811
3886.51,0.08871
3863.36,0.08786
3840.22,0.08934
3817.07,0.09040
3793.93,0.09108
3770.78,0.09176
3747.64,0.09143
3724.49,0.09324
3701.34,0.09116
3678.2,0.08504
3655.05,0.08454
3631.91,0.08569
3608.76,0.08363
3585.62,0.08048
3562.47,0.07726
3539.33,0.07607
3516.18,0.07443
3493.04,0.07218
3469.89,0.06945
3446.74,0.06674
3423.6,0.06353
3400.45,0.06670
3377.31,0.07015
3354.16,0.07271
3331.02,0.07171
3307.87,0.06534
3284.73,0.06945
3261.58,0.07474
3238.44,0.07682
3215.29,0.07536
3192.14,0.07403
3169,0.07464
3145.85,0.07341
3122.71,0.07146
3099.56,0.06834
3076.42,0.06502
3053.27,0.06247
3030.13,0.06091
3006.98,0.05811
2983.84,0.05580
2960.69,0.05824
2937.54,0.05905
2914.4,0.06211
2891.25,0.06180
2868.11,0.06204
2844.96,0.06347
2821.82,0.06244
2798.67,0.06391
2775.53,0.06726
2752.38,0.06814
2729.24,0.06700
2706.09,0.07095
2682.94,0.07207
2659.8,0.07287
2636.65,0.07434
2613.51,0.07269
2590.36,0.07338
2567.22,0.07330
2544.07,0.07456
2520.93,0.07606
2497.78,0.07878
2474.64,0.07944
2451.49,0.08028
2428.34,0.07816
2405.2,0.07574
2382.05,0.07373
2358.91,0.07589
2335.76,0.07979
2312.62,0.08196
2289.47,0.08045
2266.33,0.08012
2243.18,0.07993
2220.04,0.08018
2196.89,0.08269
2173.74,0.08463
2150.6,0.08386
2127.45,0.08358
2104.31,0.08270
2081.16,0.08124
2058.02,0.08169
2034.87,0.08312
2011.73,0.08443
1988.58,0.08186
1965.44,0.07809
1942.29,0.07243
1919.14,0.07945
1896,0.08001
1872.85,0.08040
1849.71,0.07610
1826.56,0.06673
1803.42,0.06647
1780.27,0.06083
1757.13,0.05453
1733.98,0.04953
1710.84,0.06963
1687.69,0.06140
1664.54,0.06052
1641.4,0.06058
1618.25,0.06288
1595.11,0.06433
1571.96,0.05854
1548.82,0.06014
1525.67,0.05962
1502.53,0.05690
1479.38,0.05415
1456.24,0.05713
1433.09,0.05536
1409.94,0.05555
1386.8,0.05429
1363.65,0.05465
1340.51,0.05251
1317.36,0.05226
1294.22,0.04724
1271.07,0.06558
1247.93,0.07226
1224.78,0.06781
1201.64,0.06288
1178.49,0.06041
1155.34,0.05861
1132.2,0.05398
1109.05,0.06449
1085.91,0.06637
1062.76,0.06429
1039.62,0.06156
1016.47,0.06475
993.326,0.06091
970.18,0.06055
947.035,0.06370
923.89,0.06285
900.744,0.06252
877.599,0.06042
854.453,0.06261
831.308,0.06142
808.162,0.06308
785.017,0.06023
761.871,0.05867
738.726,0.05140
715.58,0.06022
692.435,0.05946
669.29,0.05930
646.144,0.05708
622.999,0.05839
599.853,0.06309

File: PEVA_0.26_IS_S_240809_R3.dpt
7497.2,0.11582
7474.05,0.09628
7450.91,0.10178
7427.76,0.10038
7404.62,0.10881
7381.47,0.11100
7358.33,0.11087
7335.18,0.09659
7312.04,0.09725
7288.89,0.09916
7265.75,0.09656
7242.6,0.10124
7219.45,0.09875
7196.31,0.08968
7173.16,0.08993
7150.02,0.10143
7126.87,0.09760
7103.73,0.10537
7080.58,0.10497
7057.44,0.10159
7034.29,0.10125
7011.15,0.09432
6988,0.09231
6964.85,0.10307
6941.71,0.09485
6918.56,0.10567
6895.42,0.10848
6872.27,0.09899
6849.13,0.09956
6825.98,0.10009
6802.84,0.09809
6779.69,0.09834
6756.55,0.09971
6733.4,0.10149
6710.25,0.10148
6687.11,0.09849
6663.96,0.10042
6640.82,0.09389
6617.67,0.09280
6594.53,0.09546
6571.38,0.09953
6548.24,0.09888
6525.09,0.09753
6501.95,0.10109
6478.8,0.09898
6455.65,0.10042
6432.51,0.10014
6409.36,0.10305
6386.22,0.09885
6363.07,0.09658
6339.93,0.10355
6316.78,0.09834
6293.64,0.09755
6270.49,0.09724
6247.34,0.09977
6224.2,0.09600
6201.05,0.09864
6177.91,0.10101
6154.76,0.10067
6131.62,0.09864
6108.47,0.09753
6085.33,0.09859
6062.18,0.10159
6039.04,0.09640
6015.89,0.09604
5992.74,0.09778
5969.6,0.09797
5946.45,0.09576
5923.31,0.09483
5900.16,0.09105
5877.02,0.09226
5853.87,0.08717
5830.73,0.08488
5807.58,0.08851
5784.44,0.08999
5761.29,0.09153
5738.14,0.09227
5715,0.09213
5691.85,0.09306
5668.71,0.09110
5645.56,0.09462
5622.42,0.09284
5599.27,0.09431
5576.13,0.09668
5552.98,0.09530
5529.84,0.09809
5506.69,0.09675
5483.54,0.09750
5460.4,0.09610
5437.25,0.09756
5414.11,0.09900
5390.96,0.09859
5367.82,0.09775
5344.67,0.09778
5321.53,0.09885
5298.38,0.09997
5275.24,0.09771
5252.09,0.10103
5228.94,0.09808
5205.8,0.10024
5182.65,0.09913
5159.51,0.10024
5136.36,0.09893
5113.22,0.10072
5090.07,0.09953
5066.93,0.10068
5043.78,0.09935
5020.64,0.09991
4997.49,0.09991
4974.34,0.09894
4951.2,0.09930
4928.05,0.10124
4904.91,0.10034
4881.76,0.10182
4858.62,0.09991
4835.47,0.10090
4812.33,0.09941
4789.18,0.10089
4766.04,0.10108
4742.89,0.10065
4719.74,0.09949
4696.6,0.09790
4673.45,0.09740
4650.31,0.09866
4627.16,0.09690
4604.02,0.09938
4580.87,0.09933
4557.73,0.09967
4534.58,0.10009
4511.44,0.09835
4488.29,0.09728
4465.14,0.09499
4442,0.09222
4418.85,0.08474
4395.71,0.07965
4372.56,0.07466
4349.42,0.06824
4326.27,0.06764
4303.13,0.07171
4279.98,0.07108
4256.84,0.07249
4233.69,0.07309
4210.54,0.07086
4187.4,0.07368
4164.25,0.07271
4141.11,0.07614
4117.96,0.07805
4094.82,0.07552
4071.67,0.07492
4048.53,0.08017
4025.38,0.08131
4002.24,0.08204
3979.09,0.08507
3955.94,0.08570
3932.8,0.08599
3909.65,0.08596
3886.51,0.08668
3863.36,0.08780
3840.22,0.08751
3817.07,0.08794
3793.93,0.08901
3770.78,0.09034
3747.64,0.09005
3724.49,0.09164
3701.34,0.08936
3678.2,0.08261
3655.05,0.08431
3631.91,0.08477
3608.76,0.08204
3585.62,0.07899
3562.47,0.07618
3539.33,0.07463
3516.18,0.07337
3493.04,0.07046
3469.89,0.06809
3446.74,0.06696
3423.6,0.06318
3400.45,0.06670
3377.31,0.06976
3354.16,0.07119
3331.02,0.07048
3307.87,0.06420
3284.73,0.06752
3261.58,0.07349
3238.44,0.07443
3215.29,0.07272
3192.14,0.07305
3169,0.07325
3145.85,0.07200
3122.71,0.07011
3099.56,0.06706
3076.42,0.06326
3053.27,0.06117
3030.13,0.06038
3006.98,0.05709
2983.84,0.05519
2960.69,0.05765
2937.54,0.05771
2914.4,0.06096
2891.25,0.06172
2868.11,0.06077
2844.96,0.06158
2821.82,0.06116
2798.67,0.06285
2775.53,0.06629
2752.38,0.06721
2729.24,0.06550
2706.09,0.07020
2682.94,0.07065
2659.8,0.07175
2636.65,0.07262
2613.51,0.07164
2590.36,0.07156
2567.22,0.07214
2544.07,0.07298
2520.93,0.07422
2497.78,0.07735
2474.64,0.07869
2451.49,0.07889
2428.34,0.07673
2405.2,0.07423
2382.05,0.07260
2358.91,0.07499
2335.76,0.07863
2312.62,0.08039
2289.47,0.07843
2266.33,0.07803
2243.18,0.07886
2220.04,0.07925
2196.89,0.08127
2173.74,0.08269
2150.6,0.08219
2127.45,0.08202
2104.31,0.08117
2081.16,0.07984
2058.02,0.08040
2034.87,0.08117
2011.73,0.08254
1988.58,0.08034
1965.44,0.07649
1942.29,0.07127
1919.14,0.07742
1896,0.07844
1872.85,0.07850
1849.71,0.07478
1826.56,0.06495
1803.42,0.06495
1780.27,0.05948
1757.13,0.05336
1733.98,0.04827
1710.84,0.06819
1687.69,0.05966
1664.54,0.05960
1641.4,0.05900
1618.25,0.06177
1595.11,0.06257
1571.96,0.05732
1548.82,0.05906
1525.67,0.05802
1502.53,0.05515
1479.38,0.05322
1456.24,0.05463
1433.09,0.05408
1409.94,0.05454
1386.8,0.05362
1363.65,0.05338
1340.51,0.05071
1317.36,0.05128
1294.22,0.04685
1271.07,0.06420
1247.93,0.07094
1224.78,0.06621
1201.64,0.06136
1178.49,0.05899
1155.34,0.05688
1132.2,0.05307
1109.05,0.06294
1085.91,0.06520
1062.76,0.06313
1039.62,0.06115
1016.47,0.06452
993.326,0.05985
970.18,0.06001
947.035,0.06249
923.89,0.06171
900.744,0.06068
877.599,0.05944
854.453,0.06112
831.308,0.06029
808.162,0.06098
785.017,0.05890
761.871,0.05764
738.726,0.04974
715.58,0.05938
692.435,0.05762
669.29,0.05873
646.144,0.05569
622.999,0.06016
599.853,0.06350