Folder: fsri_materials_database/01_Data/Nomex_Turnout_Gear_Thermal_Liner/STA/N2/10K_min

File: Nomex_Turnout_Gear_Thermal_Liner_STA_N2_10KData_240524_R1.csv
Temp./C,Time/min,DSC/(mW/mg),Mass loss/mg
60.0,0.0,0.843075,-0.0205238
62.5,0.280592,0.919875,-0.0209263
65,0.554093,0.996395,-0.0223372
67.5,0.821196,1.0586,-0.0227821
70,1.08731,1.11797,-0.0248662
72.5,1.35122,1.18388,-0.0264581
75,1.61181,1.23405,-0.0284214
77.5,1.87001,1.28571,-0.0290499
80,2.12871,1.32206,-0.0330399
82.5,2.38373,1.34279,-0.0344518
85,2.63569,1.35817,-0.0383123
87.5,2.88792,1.37793,-0.0382831
90,3.13711,1.37713,-0.0396544
92.5,3.38565,1.36354,-0.04161
95,3.63213,1.34766,-0.04358
97.5,3.87876,1.32549,-0.04556
100,4.12221,1.29925,-0.04688
102.5,4.36634,1.26037,-0.0468709
105,4.6089,1.23627,-0.04819
107.5,4.85207,1.2053,-0.0485302
110,5.09235,1.1802,-0.0505009
112.5,5.33389,1.15217,-0.0511599
115,5.57625,1.12303,-0.0514048
117.5,5.81866,1.11312,-0.0534382
120,6.0571,1.09267,-0.05181
122.5,6.30091,1.07932,-0.053141
125,6.54269,1.07509,-0.0531405
127.5,6.78425,1.06986,-0.05446
130,7.02508,1.07757,-0.05314
132.5,7.26483,1.08309,-0.0531276
135,7.50375,1.07883,-0.0528024
137.5,7.74424,1.08075,-0.05314
140,7.9841,1.08748,-0.0531315
142.5,8.22318,1.08193,-0.05314
145,8.46347,1.09204,-0.05313
147.5,8.70199,1.09868,-0.0535619
150,8.9405,1.1019,-0.05346
152.5,9.1797,1.10884,-0.0538076
155,9.41823,1.11366,-0.0512981
157.5,9.65635,1.12095,-0.0526826
160,9.89562,1.12792,-0.05368
162.5,10.1324,1.14403,-0.0533624
165,10.3704,1.14811,-0.0536817
167.5,10.6095,1.14395,-0.0536799
170,10.8475,1.16058,-0.0543432
172.5,11.0856,1.16658,-0.0546422
175,11.324,1.17391,-0.0540014
177.5,11.5627,1.1821,-0.0550042
180,11.801,1.18338,-0.0530299
182.5,12.0386,1.18816,-0.0530377
185,12.2753,1.19635,-0.056426
187.5,12.5126,1.20915,-0.0566235
190,12.7506,1.21345,-0.0572
192.5,12.9881,1.21756,-0.0575769
195,13.2252,1.23053,-0.0611686
197.5,13.4629,1.24657,-0.0611415
200,13.6997,1.26003,-0.06247
202.5,13.9378,1.25547,-0.0637891
205,14.1754,1.25397,-0.0664197
207.5,14.4099,1.23859,-0.0690417
210,14.6505,1.2387,-0.07037
212.5,14.8872,1.23595,-0.0718523
215,15.1242,1.23862,-0.0716876
217.5,15.3615,1.23341,-0.0730109
220,15.6004,1.24014,-0.0743248
222.5,15.8372,1.2432,-0.0716899
225,16.0762,1.25112,-0.0759703
227.5,16.3119,1.24733,-0.07399
230,16.5503,1.24095,-0.07399
232.5,16.7874,1.24225,-0.07399
235,17.0258,1.25027,-0.07531
237.5,17.2628,1.25443,-0.07531
240,17.501,1.2542,-0.07597
242.5,17.7378,1.25766,-0.07696
245,17.9751,1.24898,-0.0763081
247.5,18.2144,1.26381,-0.0767287
250,18.4501,1.26028,-0.07663
252.5,18.6917,1.25579,-0.07762
255,18.9289,1.26315,-0.0786114
257.5,19.1679,1.27078,-0.0786857
260,19.4067,1.28113,-0.0802466
262.5,19.6429,1.2891,-0.082322
265,19.8824,1.29981,-0.0811284
267.5,20.1214,1.31627,-0.08377
270,20.3604,1.34501,-0.083939
272.5,20.5985,1.37973,-0.08476
275,20.839,1.42239,-0.0873704
277.5,21.0762,1.45907,-0.0879314
280,21.3161,1.45324,-0.0903498
282.5,21.5552,1.42245,-0.0929801
285,21.7929,1.39532,-0.094398
287.5,22.033,1.34946,-0.0970397
290,22.2712,1.33624,-0.0982816
292.5,22.5108,1.32274,-0.100558
295,22.7506,1.31186,-0.103573
297.5,22.989,1.30871,-0.10484
300,23.2291,1.31855,-0.107447
302.5,23.4685,1.32215,-0.109794
305,23.7095,1.33273,-0.112868
307.5,23.9488,1.33455,-0.116854
310,24.1899,1.34358,-0.119444
312.5,24.4294,1.35742,-0.12307
315,24.6708,1.36075,-0.126939
317.5,24.9107,1.37679,-0.128257
320,25.1512,1.37809,-0.131907
322.5,25.3911,1.38309,-0.137607
325,25.6321,1.39133,-0.140632
327.5,25.8735,1.40071,-0.145219
330,26.1126,1.40813,-0.150165
332.5,26.3547,1.40545,-0.154152
335,26.5967,1.40136,-0.159512
337.5,26.8379,1.40013,-0.165971
340,27.0788,1.39434,-0.170662
342.5,27.3213,1.36647,-0.175873
345,27.5618,1.33471,-0.179524
347.5,27.8028,1.29772,-0.184446
350,28.0441,1.26665,-0.188378
352.5,28.2868,1.22088,-0.19234
355,28.5262,1.19689,-0.19498
357.5,28.7685,1.16837,-0.196535
360,29.0122,1.16705,-0.19673
362.5,29.2565,1.17486,-0.199336
365,29.4976,1.16679,-0.198376
367.5,29.7406,1.16797,-0.19838
370,29.984,1.16971,-0.19838
372.5,30.2265,1.17119,-0.200999
375,30.4696,1.18136,-0.203065
377.5,30.713,1.19931,-0.20101
380,30.9578,1.21728,-0.20406
382.5,31.2012,1.23176,-0.203707
385,31.4457,1.24471,-0.20562
387.5,31.6878,1.26686,-0.20914
390,31.9339,1.29142,-0.210462
392.5,32.1783,1.31319,-0.210442
395,32.4237,1.34696,-0.214085
397.5,32.6684,1.37397,-0.216133
400,32.9132,1.4116,-0.216394
402.5,33.1578,1.45328,-0.221327
405,33.404,1.51446,-0.223128
407.5,33.6487,1.57381,-0.225579
410,33.8948,1.63659,-0.23054
412.5,34.1414,1.72701,-0.235159
415,34.3878,1.85209,-0.240153
417.5,34.6335,1.97894,-0.24599
420,34.8806,2.11364,-0.253835
422.5,35.1266,2.21689,-0.259809
425,35.374,2.28979,-0.269451
427.5,35.6189,2.29113,-0.280644
430,35.8649,2.2451,-0.29225
432.5,36.1102,2.15192,-0.306973
435,36.3548,2.0447,-0.323745
437.5,36.5994,1.95109,-0.339977
440,36.8445,1.87653,-0.359632
442.5,37.0903,1.83161,-0.380897
445,37.3347,1.82149,-0.405138
447.5,37.5831,1.80879,-0.42804
450,37.8301,1.8169,-0.456546
452.5,38.077,1.82198,-0.48294
455,38.3243,1.80853,-0.512222
457.5,38.5707,1.80722,-0.542842
460,38.8182,1.77995,-0.573544
462.5,39.0639,1.74584,-0.602514
465,39.312,1.70605,-0.636344
467.5,39.5578,1.65537,-0.665066
470,39.8051,1.60304,-0.696954
472.5,40.0518,1.54375,-0.725983
475,40.2966,1.50274,-0.756883
477.5,40.5452,1.4503,-0.785217
480,40.7925,1.41381,-0.814482
482.5,41.0395,1.37199,-0.844479
485,41.2874,1.33275,-0.872604
487.5,41.5353,1.30613,-0.897617
490,41.7834,1.27634,-0.924352
492.5,42.0314,1.2507,-0.948573
495,42.2787,1.21815,-0.972481
497.5,42.5265,1.20061,-0.996037
500,42.776,1.18192,-1.0153
502.5,43.0228,1.16248,-1.03601
505,43.2718,1.14304,-1.05632
507.5,43.5206,1.12728,-1.07389
510,43.7676,1.11039,-1.08942
512.5,44.0173,1.10714,-1.1075
515,44.2669,1.0906,-1.12121
517.5,44.5145,1.08719,-1.13697
520,44.7648,1.0772,-1.15357
522.5,45.0141,1.07011,-1.16811
525,45.2637,1.0747,-1.18367
527.5,45.514,1.07456,-1.19988
530,45.7637,1.06691,-1.21532
532.5,46.0127,1.07039,-1.22927
535,46.2619,1.07681,-1.2456
537.5,46.5129,1.08766,-1.26191
540,46.7637,1.10286,-1.27784
542.5,47.0146,1.10601,-1.29511
545,47.2647,1.11482,-1.31138
547.5,47.516,1.14366,-1.33106
550,47.7668,1.16399,-1.35038
552.5,48.0169,1.18587,-1.36898
555,48.2661,1.21692,-1.39012
557.5,48.5188,1.22571,-1.41465
560,48.7702,1.25717,-1.4377
562.5,49.0204,1.28721,-1.46575
565,49.271,1.33423,-1.49761
567.5,49.5225,1.38022,-1.5258
570,49.773,1.42032,-1.55974
572.5,50.0245,1.43667,-1.59466
575,50.275,1.41668,-1.63184
577.5,50.5252,1.32812,-1.66967
580,50.7746,1.15666,-1.70037
582.5,51.0223,0.896864,-1.72848
585,51.2724,0.663794,-1.74639
587.5,51.5211,0.537151,-1.76153
590,51.7725,0.493124,-1.77273
592.5,52.0244,0.485896,-1.78091
595,52.2749,0.475654,-1.79067
597.5,52.5263,0.478815,-1.79906
600,52.778,0.480801,-1.80748
602.5,53.0295,0.499724,-1.81612
605,53.2822,0.50972,-1.82258
607.5,53.5339,0.528774,-1.82833
610,53.7858,0.540597,-1.8336
612.5,54.0375,0.559471,-1.84112
615,54.29,0.585433,-1.8458
617.5,54.5422,0.604538,-1.85283
620,54.794,0.623136,-1.85906
622.5,55.0464,0.647719,-1.86618
625,55.3006,0.664649,-1.87205
627.5,55.5532,0.681369,-1.87269
630,55.8062,0.708889,-1.88076
632.5,56.0585,0.719379,-1.88605
635,56.3101,0.737,-1.88904
637.5,56.5626,0.743969,-1.89352
640,56.8152,0.756784,-1.89835
642.5,57.0676,0.768215,-1.90331
645,57.3204,0.78881,-1.9043
647.5,57.5718,0.812804,-1.91128
650,57.8256,0.826459,-1.91287
652.5,58.0788,0.850948,-1.91551
655,58.3308,0.864047,-1.92208
657.5,58.5834,0.867213,-1.92382
660,58.8362,0.880377,-1.92609
662.5,59.0888,0.889934,-1.93196
665,59.3399,0.894124,-1.93551
667.5,59.5927,0.895689,-1.93856
670,59.8453,0.883721,-1.94251
672.5,60.0977,0.87239,-1.94563
675,60.3507,0.873095,-1.94931
677.5,60.6029,0.865416,-1.95063
680,60.8564,0.850501,-1.95377
682.5,61.1097,0.850143,-1.95985
685,61.3626,0.833274,-1.96215
687.5,61.6157,0.831641,-1.96348
690,61.8696,0.833802,-1.96743
692.5,62.122,0.828259,-1.97011
695,62.3747,0.822884,-1.97391
697.5,62.6284,0.809363,-1.98012
700,62.8812,0.81102,-1.98136
702.5,63.1357,0.798525,-1.98422
705,63.3882,0.800959,-1.97785
707.5,63.6419,0.796573,-1.98254
710,63.8961,0.792238,-1.99758
712.5,64.1509,0.798767,-2.00156
715,64.405,0.80838,-2.01499
717.5,64.6587,0.821108,-2.01276
720,64.9129,0.834044,-2.01176
722.5,65.1653,0.823175,-2.01179
725,65.4205,0.817533,-2.01639
727.5,65.6743,0.795929,-2.02018
730,65.9281,0.796787,-2.02293
732.5,66.1826,0.780233,-2.02605
735,66.4367,0.768075,-2.03
737.5,66.691,0.758689,-2.03205
740,66.9446,0.737904,-2.03528
742.5,67.2015,0.731673,-2.03792
745,67.4558,0.721073,-2.04188
747.5,67.7109,0.702118,-2.04717
750,67.9668,0.688839,-2.05042
752.5,68.2225,0.687275,-2.0507
755,68.4765,0.669923,-2.05668
757.5,68.7332,0.658213,-2.05659
760,68.9875,0.643865,-2.06063
762.5,69.2449,0.63616,-2.06458
765,69.5008,0.62546,-2.0659
767.5,69.7571,0.622311,-2.06788
770,70.0127,0.601071,-2.07209
772.5,70.2679,0.602452,-2.07381
775,70.5249,0.593918,-2.07644
777.5,70.7793,0.588377,-2.07908
780,71.0355,0.581706,-2.08043
782.5,71.2918,0.579706,-2.08171
785,71.5492,0.576456,-2.08434
787.5,71.8055,0.564526,-2.08678
790,72.0618,0.572986,-2.08961