Folder: fsri_materials_database/01_Data/EIFS_XPS/STA/N2/30K_min

File: EIFS_XPS_STA_N2_30KData_230901_R1.csv
##Temp./Â°C,Time/min,DSC/(uV/mg),Mass loss/mg
40.0,10.4841,-2.39161,0.00858728
42.2,10.8494,-2.31691,0.00998553
44.4,11.0379,-2.27368,0.0110674
46.6,11.182,-2.23684,0.0110213
48.8,11.3062,-2.20497,0.0116689
51,11.419,-2.17343,0.010424
53.2,11.5223,-2.145,0.011538
55.4,11.6209,-2.11723,0.0116277
57.6,11.7144,-2.092,0.0112628
59.8,11.8035,-2.06746,0.0117857
62,11.8909,-2.04275,0.0101399
64.2,11.9751,-2.02055,0.0107424
66.4,12.0576,-1.99937,0.0107231
68.6,12.1396,-1.97973,0.0129037
70.8,12.2199,-1.96282,0.0114012
73,12.2992,-1.94713,0.0101311
75.2,12.3784,-1.93142,0.0118205
77.4,12.4562,-1.91898,0.0103767
79.6,12.5339,-1.91171,0.0106027
81.8,12.6111,-1.90527,0.0101719
84,12.6878,-1.89945,0.011698
86.2,12.7635,-1.88323,0.0115963
88.4,12.8386,-1.85298,0.0116358
90.6,12.9129,-1.81501,0.0109521
92.8,12.9869,-1.7896,0.0116582
95,13.0617,-1.77141,0.0114667
97.2,13.1352,-1.76008,0.0114274
99.4,13.2084,-1.75589,0.0103118
101.6,13.2829,-1.75612,0.0102628
103.8,13.3563,-1.7636,0.0102164
106,13.4305,-1.78262,0.0116302
108.2,13.5038,-1.80796,0.011619
110.4,13.5776,-1.83158,0.0103101
112.6,13.6509,-1.85463,0.0103021
114.8,13.7247,-1.87858,0.0103213
117,13.7981,-1.89925,0.00816847
119.2,13.8712,-1.9237,0.00768057
121.4,13.944,-1.94241,0.0076794
123.6,14.0161,-1.94836,0.00638089
125.8,14.0878,-1.9457,0.00498046
128,14.1593,-1.92344,0.00318509
130.2,14.2302,-1.89213,0.00240995
132.4,14.3011,-1.85442,0.00240601
134.6,14.3716,-1.81638,0.00174976
136.8,14.4412,-1.77788,0.00175011
139,14.5116,-1.7433,0.000381307
141.2,14.5814,-1.71742,0.000440009
143.4,14.6514,-1.69808,0.000440003
145.6,14.7204,-1.68586,0.000440003
147.8,14.7906,-1.67448,0.000440003
150,14.8598,-1.66318,0.000440003
152.2,14.9289,-1.65395,0.000440109
154.4,14.9982,-1.64487,0.0011043
156.6,15.0674,-1.63629,0.000439883
158.8,15.1363,-1.6288,0.000420158
161,15.2052,-1.62081,-0.000550414
163.2,15.2738,-1.61214,-0.000550105
165.4,15.3425,-1.60529,-0.000550105
167.6,15.4113,-1.59569,-0.000550105
169.8,15.48,-1.58841,-0.000550314
172,15.548,-1.58217,-0.000880327
174.2,15.6164,-1.57246,-0.000881095
176.4,15.6848,-1.5678,-0.00218585
178.6,15.7532,-1.55976,-0.0022
180.8,15.8209,-1.55199,-0.0022
183,15.8886,-1.54498,-0.00220001
185.2,15.9565,-1.53599,-0.0030521
187.4,16.0241,-1.52948,-0.00319003
189.6,16.0914,-1.52302,-0.00319
191.8,16.1588,-1.51361,-0.00319
194,16.2254,-1.50596,-0.00319105
196.2,16.2933,-1.49798,-0.0044955
198.4,16.3605,-1.49007,-0.00450989
200.6,16.4278,-1.48351,-0.00450989
202.8,16.4944,-1.47619,-0.00450989
205,16.5616,-1.47065,-0.00450989
207.2,16.6286,-1.46249,-0.00450989
209.4,16.6956,-1.46007,-0.00452303
211.6,16.7627,-1.45561,-0.00581884
213.8,16.8296,-1.45151,-0.00582004
216,16.8964,-1.45063,-0.0067699
218.2,16.9632,-1.44837,-0.00714005
220.4,17.03,-1.44633,-0.0071401
222.6,17.0972,-1.44226,-0.00714011
224.8,17.163,-1.44019,-0.00708479
227,17.2304,-1.43653,-0.00846
229.2,17.2966,-1.43387,-0.00845999
231.4,17.3642,-1.43039,-0.0084592
233.6,17.4304,-1.4276,-0.00945103
235.8,17.4972,-1.42324,-0.00975413
238,17.5634,-1.41954,-0.0101165
240.2,17.6304,-1.4165,-0.010257
242.4,17.6971,-1.41239,-0.0101011
244.6,17.7634,-1.40832,-0.0127342
246.8,17.8303,-1.40445,-0.0127301
249,17.8967,-1.39979,-0.0126852
251.2,17.9631,-1.39682,-0.0140503
253.4,18.0295,-1.39378,-0.0135441
255.6,18.0959,-1.38866,-0.014058
257.8,18.1622,-1.3849,-0.0153761
260,18.2286,-1.38183,-0.015391
262.2,18.295,-1.37801,-0.0166827
264.4,18.3613,-1.37568,-0.0179987
266.6,18.4277,-1.37172,-0.0193167
268.8,18.4941,-1.37037,-0.0180317
271,18.5602,-1.36699,-0.0199951
273.2,18.6266,-1.36448,-0.0199899
275.4,18.6933,-1.3636,-0.0199897
277.6,18.7594,-1.36222,-0.0191011
279.8,18.826,-1.36041,-0.0199763
282,18.8921,-1.35871,-0.0213256
284.2,18.9588,-1.35729,-0.0239392
286.4,19.0251,-1.35636,-0.0239409
288.6,19.0913,-1.35565,-0.0252511
290.8,19.1578,-1.35295,-0.0251814
293,19.2241,-1.35446,-0.0265703
295.2,19.2906,-1.35399,-0.0278814
297.4,19.357,-1.35465,-0.0278902
299.6,19.4235,-1.35324,-0.0291301
301.8,19.4898,-1.35379,-0.0293404
304,19.5565,-1.35424,-0.0319444
306.2,19.623,-1.35382,-0.0315325
308.4,19.6898,-1.35397,-0.0323054
310.6,19.7564,-1.3551,-0.0319435
312.8,19.8229,-1.35429,-0.0332901
315,19.8898,-1.35398,-0.0359999
317.2,19.9562,-1.35423,-0.0373319
319.4,20.0227,-1.35453,-0.038648
321.6,20.0894,-1.35419,-0.0399516
323.8,20.1564,-1.35489,-0.0400795
326,20.2234,-1.35487,-0.0412815
328.2,20.2902,-1.35571,-0.0425999
330.4,20.3571,-1.35658,-0.0439207
332.6,20.4242,-1.35988,-0.0452439
334.8,20.4913,-1.3626,-0.0455611
337,20.5582,-1.36563,-0.0468938
339.2,20.6257,-1.36959,-0.0482777
341.4,20.6927,-1.3724,-0.0509214
343.6,20.76,-1.37712,-0.0521497
345.8,20.8273,-1.38132,-0.0549485
348,20.8948,-1.38679,-0.0575706
350.2,20.9622,-1.39382,-0.0596182
352.4,21.0298,-1.39966,-0.0608198
354.6,21.0971,-1.40709,-0.0637644
356.8,21.165,-1.4141,-0.0665054
359,21.2326,-1.42256,-0.0695892
361.2,21.3003,-1.43315,-0.0738123
363.4,21.3683,-1.44392,-0.0775531
365.6,21.436,-1.45539,-0.080871
367.8,21.5036,-1.46855,-0.0855222
370,21.5718,-1.48503,-0.0905255
372.2,21.6396,-1.50357,-0.0951676
374.4,21.7079,-1.52602,-0.103074
376.6,21.776,-1.55486,-0.110599
378.8,21.8445,-1.58663,-0.117022
381,21.9133,-1.62466,-0.125603
383.2,21.9818,-1.66937,-0.13493
385.4,22.0506,-1.71891,-0.146569
387.6,22.1195,-1.78198,-0.157755
389.8,22.1889,-1.8561,-0.171905
392,22.2579,-1.9417,-0.187577
394.2,22.3278,-2.04072,-0.206664
396.4,22.3976,-2.15497,-0.228496
398.6,22.4678,-2.2802,-0.253339
400.8,22.5383,-2.43902,-0.280769
403,22.6095,-2.63372,-0.312424
405.2,22.6812,-2.8452,-0.351778
407.4,22.7532,-3.08688,-0.398502
409.6,22.826,-3.3759,-0.450312
411.8,22.8993,-3.66315,-0.509959
414,22.9723,-3.95687,-0.574794
416.2,23.0453,-4.26731,-0.644488
418.4,23.1201,-4.64837,-0.721451
420.6,23.1967,-5.16923,-0.809951
422.8,23.2736,-5.72662,-0.93924
425,23.3517,-6.31832,-1.08654
427.2,23.43,-6.91961,-1.25549
429.4,23.5081,-7.48334,-1.44323
431.6,23.5851,-7.95437,-1.66906
433.8,23.6603,-8.30031,-1.89032
436,23.7338,-8.52003,-2.11735
438.2,23.8054,-8.5773,-2.34956
440.4,23.874,-8.45257,-2.57371
442.6,23.9396,-8.10027,-2.79692
444.8,24.0032,-7.61266,-2.99975
447,24.0628,-6.90706,-3.20528
449.2,24.1215,-6.07919,-3.36103
451.4,24.1784,-5.20497,-3.47131
453.6,24.2352,-4.30673,-3.56648
455.8,24.2914,-3.46172,-3.64655
458,24.3491,-2.6893,-3.70604
460.2,24.4074,-2.04182,-3.75584
462.4,24.468,-1.52223,-3.79145
464.6,24.5299,-1.12501,-3.81993
466.8,24.5931,-0.827745,-3.83758
469,24.6573,-0.616514,-3.85397
471.2,24.7231,-0.463117,-3.86296
473.4,24.7894,-0.366261,-3.86958
475.6,24.8568,-0.29868,-3.87679
477.8,24.9246,-0.252461,-3.88143
480,24.9928,-0.22263,-3.88492
482.2,25.0608,-0.202412,-3.88766
484.4,25.1295,-0.183906,-3.88822
486.6,25.1983,-0.167737,-3.89081
488.8,25.2671,-0.149824,-3.89207
491,25.3365,-0.141165,-3.89327
493.2,25.4058,-0.134555,-3.89226
495.4,25.4755,-0.133617,-3.89335
497.6,25.5449,-0.137704,-3.89357
499.8,25.6149,-0.155076,-3.89447
502,25.6848,-0.172369,-3.89519
504.2,25.7547,-0.185122,-3.89554
506.4,25.8244,-0.191542,-3.89687
508.6,25.895,-0.195584,-3.89689
510.8,25.9647,-0.193861,-3.89588
513,26.0356,-0.19039,-3.89588
515.2,26.1059,-0.186291,-3.89588
517.4,26.1763,-0.184922,-3.89582
519.6,26.2468,-0.182732,-3.89457
521.8,26.3175,-0.17927,-3.8947
524,26.388,-0.176017,-3.89555
526.2,26.4586,-0.168507,-3.89555
528.4,26.5285,-0.16472,-3.89555
530.6,26.5999,-0.160814,-3.89556
532.8,26.6713,-0.160076,-3.89556
535,26.7415,-0.159554,-3.89688
537.2,26.8126,-0.159475,-3.89683
539.4,26.8836,-0.160279,-3.89687
541.6,26.9546,-0.161809,-3.89686
543.8,27.0258,-0.160431,-3.89721
546,27.097,-0.160387,-3.89721
548.2,27.1682,-0.160069,-3.89722
550.4,27.2394,-0.15777,-3.89589
552.6,27.3107,-0.156992,-3.89589
554.8,27.3818,-0.156066,-3.89702
557,27.4526,-0.156157,-3.89853
559.2,27.524,-0.156429,-3.89759
561.4,27.5955,-0.157937,-3.89591
563.6,27.667,-0.160701,-3.89588
565.8,27.7392,-0.1648,-3.89601
568,27.8103,-0.170586,-3.89589
570.2,27.8822,-0.176522,-3.89728
572.4,27.9535,-0.180353,-3.89819
574.6,28.0249,-0.184741,-3.89819
576.8,28.0968,-0.187835,-3.89755
579,28.1683,-0.192014,-3.89687
581.2,28.2403,-0.194285,-3.89819
583.4,28.3119,-0.199213,-3.8991
585.6,28.384,-0.201293,-3.89786
587.8,28.4561,-0.204589,-3.8978
590,28.5279,-0.209779,-3.89885
592.2,28.5997,-0.212058,-3.89753
594.4,28.6717,-0.216372,-3.89866
596.6,28.7436,-0.219427,-3.89917
598.8,28.8158,-0.223929,-3.89918
601,28.8879,-0.227713,-3.89852
603.2,28.96,-0.230218,-3.89786
605.4,29.0319,-0.2341,-3.89926
607.6,29.1042,-0.238188,-3.89831
609.8,29.1764,-0.243425,-3.89786
612,29.2481,-0.247517,-3.89786
614.2,29.3206,-0.251541,-3.89781
616.4,29.3931,-0.253909,-3.9005
618.6,29.4654,-0.257118,-3.89956
620.8,29.5374,-0.261273,-3.90087
623,29.6099,-0.263107,-3.90082
625.2,29.682,-0.266038,-3.90215
627.4,29.7546,-0.267282,-3.90214
629.6,29.8271,-0.269398,-3.90214
631.8,29.8991,-0.270732,-3.90214
634,29.9718,-0.27273,-3.90214
636.2,30.0441,-0.273479,-3.90194
638.4,30.1164,-0.274342,-3.90082
640.6,30.1886,-0.275081,-3.90082
642.8,30.2611,-0.275591,-3.90189
645,30.3343,-0.276646,-3.90214
647.2,30.4071,-0.277734,-3.90213
649.4,30.4796,-0.279364,-3.90346
651.6,30.5525,-0.279052,-3.90346
653.8,30.6251,-0.280106,-3.90346
656,30.6973,-0.280348,-3.90481
658.2,30.7704,-0.282464,-3.90344
660.4,30.8431,-0.28164,-3.90346
662.6,30.9156,-0.285994,-3.90346
664.8,30.9888,-0.286581,-3.90346
667,31.0612,-0.287398,-3.90354
669.2,31.1344,-0.288401,-3.90478
671.4,31.2069,-0.289924,-3.90478
673.6,31.28,-0.291978,-3.90478
675.8,31.353,-0.292833,-3.90478
678,31.4254,-0.295784,-3.90469
680.2,31.4984,-0.297873,-3.90511
682.4,31.5713,-0.298856,-3.90478
684.6,31.6441,-0.30111,-3.90478
686.8,31.7171,-0.303461,-3.90478
689,31.7899,-0.306314,-3.90478
691.2,31.8628,-0.309875,-3.90511
693.4,31.9356,-0.311035,-3.90484
695,31.9885,-0.312473,-3.90478