Folder: fsri_materials_database/01_Data/PC_Bourke/STA/N2/10K_min

File: PC_Bourke_STA_N2_10KData_250523_R1.csv
Temp./C,Time/min,DSC/(mW/mg),Mass loss/mg
40.0,0.0,0.524931,0.001306
42.6,0.348281,0.567115,-0.0100381
45.2,0.676882,0.598471,-0.0107444
47.8,0.992819,0.632236,-0.00560142
50.4,1.30133,0.655994,-0.0141094
53,1.60041,0.691074,-0.00439923
55.6,1.89388,0.733755,-0.00902872
58.2,2.1791,0.742512,-0.00471682
60.8,2.46103,0.762184,-0.00765633
63.4,2.73583,0.781297,-0.00597366
66,3.00932,0.799546,-0.0093063
68.6,3.27892,0.833864,-0.00757005
71.2,3.54622,0.841618,-0.0059295
73.8,3.81109,0.846481,-0.00683343
76.4,4.07585,0.845925,-0.00681319
79,4.3381,0.85341,-0.00955827
81.6,4.59864,0.867664,-0.00393191
84.2,4.8588,0.882825,-0.00894639
86.8,5.11529,0.908916,-0.00674902
89.4,5.37224,0.908569,-0.0050124
92,5.62769,0.922594,-0.00648
94.6,5.87919,0.938469,-0.00779
97.2,6.13209,0.944074,-0.00779299
99.8,6.38256,0.957542,-0.00811894
102.4,6.63467,0.970113,-0.00744496
105,6.88456,0.977069,-0.00672614
107.6,7.13509,0.994461,-0.00771397
110.2,7.38404,1.00593,-0.00606863
112.8,7.63557,1.01601,-0.00699643
115.4,7.88103,1.02361,-0.00610613
118,8.13266,1.0305,-0.00549275
120.6,8.38122,1.03876,-0.00654356
123.2,8.6317,1.03973,-0.00681015
125.8,8.88024,1.0541,-0.00758919
128.4,9.12789,1.0527,-0.0087891
131,9.37655,1.06114,-0.00758
133.6,9.62256,1.09309,-0.00361759
136.2,9.86978,1.10588,-0.00559881
138.8,10.1167,1.12469,-0.00690481
141.4,10.3632,1.13915,-0.00440047
144,10.6086,1.18684,-0.00742325
146.6,10.8548,1.22626,-0.00721223
149.2,11.1014,1.27088,-0.007343
151.8,11.3468,1.32327,-0.00736
154.4,11.5918,1.32535,-0.0067
157,11.8372,1.32381,-0.00637277
159.6,12.0812,1.32083,-0.00437253
162.2,12.3259,1.32859,-0.00604008
164.8,12.5706,1.33763,-0.00703
167.4,12.8156,1.3415,-0.00808836
170,13.0595,1.33931,-0.00703051
172.6,13.3047,1.35043,-0.00541213
175.2,13.5507,1.35069,-0.00801995
177.8,13.7954,1.3557,-0.00522121
180.4,14.0401,1.34698,-0.00791901
183,14.2844,1.36699,-0.00641967
185.6,14.5289,1.38015,-0.00647904
188.2,14.7727,1.38578,-0.00509788
190.8,15.0192,1.38592,-0.00464525
193.4,15.2638,1.39924,-0.00242141
196,15.5083,1.40501,-0.00384041
198.6,15.7535,1.40956,-0.00649283
201.2,15.9985,1.42008,-0.00649256
203.8,16.2435,1.42088,-0.00515866
206.4,16.4871,1.42843,-0.0041806
209,16.7321,1.43432,-0.00749726
211.6,16.9789,1.43793,-0.00855248
214.2,17.2248,1.44409,-0.00478076
216.8,17.4714,1.45238,-0.0052631
219.4,17.7175,1.45072,-0.00653062
222,17.964,1.45337,-0.00790471
224.6,18.2115,1.46242,-0.00888237
227.2,18.4578,1.46117,-0.00221769
229.8,18.7039,1.47258,-0.00978961
232.4,18.9496,1.46846,-0.00904062
235,19.1946,1.47378,-0.00616592
237.6,19.4391,1.47068,-0.00894034
240.2,19.6854,1.48328,-0.00625929
242.8,19.9311,1.47935,-0.00495008
245.4,20.1765,1.48805,-0.008889
248,20.421,1.49187,-0.00758072
250.6,20.6671,1.48795,-0.00724
253.2,20.9108,1.48294,-0.00720345
255.8,21.158,1.48815,-0.00857
258.4,21.4032,1.49737,-0.00725
261,21.6513,1.49291,-0.00824
263.6,21.8976,1.49297,-0.00692253
266.2,22.1428,1.49165,-0.00984927
268.8,22.3875,1.49838,-0.00757
271.4,22.6366,1.50478,-0.00756803
274,22.8837,1.50584,-0.00892317
276.6,23.1293,1.50921,-0.011532
279.2,23.3771,1.50614,-0.0089
281.8,23.6239,1.51804,-0.0062418
284.4,23.8673,1.50791,-0.012927
287,24.1159,1.51105,-0.010869
289.6,24.3634,1.5086,-0.00767345
292.2,24.6107,1.51601,-0.0104407
294.8,24.8567,1.51572,-0.0088998
297.4,25.1041,1.51998,-0.00204377
300,25.3518,1.51097,-0.01032
302.6,25.5994,1.52082,-0.0134309
305.2,25.847,1.50561,-0.014272
307.8,26.0933,1.50914,-0.0128403
310.4,26.3433,1.49987,-0.0114631
313,26.5905,1.50485,-0.0148145
315.6,26.8367,1.50713,-0.0178479
318.2,27.0866,1.5,-0.0172529
320.8,27.3364,1.5041,-0.0144974
323.4,27.5847,1.52115,-0.0105402
326,27.8332,1.50575,-0.0145957
328.6,28.0817,1.49961,-0.0199903
331.2,28.3306,1.4806,-0.0156931
333.8,28.5773,1.49404,-0.0137764
336.4,28.8289,1.49222,-0.0241523
339,29.0786,1.48681,-0.0158221
341.6,29.3275,1.49039,-0.0178288
344.2,29.5764,1.47784,-0.0216422
346.8,29.8273,1.48937,-0.020313
349.4,30.0766,1.46544,-0.0209313
352,30.3269,1.4776,-0.01954
354.6,30.5769,1.46637,-0.0229387
357.2,30.8273,1.46284,-0.0242553
359.8,31.0767,1.46115,-0.0263554
362.4,31.3279,1.47403,-0.0226363
365,31.5784,1.47237,-0.0268874
367.6,31.8291,1.48161,-0.02156
370.2,32.0805,1.47694,-0.0285352
372.8,32.3308,1.47112,-0.0311769
375.4,32.5832,1.47056,-0.0312901
378,32.8337,1.4611,-0.0286498
380.6,33.0864,1.47532,-0.0312895
383.2,33.3385,1.47413,-0.0332352
385.8,33.5905,1.4587,-0.0366592
388.4,33.8416,1.46405,-0.0366701
391,34.0946,1.45139,-0.0326882
393.6,34.3461,1.42695,-0.0378801
396.2,34.5986,1.43882,-0.0340078
398.8,34.8506,1.43875,-0.0399512
401.4,35.1032,1.42626,-0.0416059
404,35.3556,1.43479,-0.0439202
406.6,35.608,1.43185,-0.0462205
409.2,35.8612,1.43072,-0.0474099
411.8,36.1147,1.43248,-0.0474201
414.4,36.3664,1.41543,-0.0512941
417,36.6192,1.39829,-0.0549256
419.6,36.8747,1.40506,-0.05785
422.2,37.1282,1.40042,-0.0525783
424.8,37.3818,1.38758,-0.0603026
427.4,37.6359,1.37165,-0.0671946
430,37.8899,1.36531,-0.0709325
432.6,38.1434,1.3519,-0.0735465
435.2,38.3979,1.33574,-0.0773039
437.8,38.6518,1.32386,-0.0913681
440.4,38.9064,1.30309,-0.0971698
443,39.16,1.2861,-0.110768
445.6,39.414,1.26495,-0.122943
448.2,39.6694,1.24116,-0.141378
450.8,39.923,1.22066,-0.160043
453.4,40.1772,1.20673,-0.194811
456,40.4306,1.21417,-0.226937
458.6,40.6855,1.24226,-0.273229
461.2,40.9401,1.29532,-0.326241
463.8,41.1949,1.34122,-0.398534
466.4,41.4525,1.4174,-0.485204
469,41.7075,1.4253,-0.5783
471.6,41.9636,1.53591,-0.684704
474.2,42.2194,1.52304,-0.807044
476.8,42.475,1.52905,-0.940613
479.4,42.729,1.5212,-1.0848
482,42.9863,1.56783,-1.2342
484.6,43.2433,1.61976,-1.40004
487.2,43.4998,1.66569,-1.57589
489.8,43.7554,1.6735,-1.75249
492.4,44.0107,1.6389,-1.93009
495,44.2652,1.55137,-2.10348
497.6,44.5212,1.41161,-2.26437
500.2,44.7755,1.23962,-2.40076
502.8,45.0295,1.0414,-2.52328
505.4,45.2854,0.863843,-2.61705
508,45.5399,0.720647,-2.69102
510.6,45.7948,0.623774,-2.74751
513.2,46.0519,0.565017,-2.79307
515.8,46.3086,0.50826,-2.83101
518.4,46.5654,0.47266,-2.85465
521,46.8218,0.438429,-2.87085
523.6,47.0798,0.41846,-2.89441
526.2,47.3376,0.399894,-2.90542
528.8,47.596,0.385569,-2.91862
531.4,47.8527,0.368032,-2.93515
534,48.1104,0.346818,-2.94255
536.6,48.3688,0.32768,-2.94932
539.2,48.6265,0.326472,-2.9565
541.8,48.8846,0.310045,-2.96517
544.4,49.1426,0.296559,-2.97423
547,49.4012,0.288301,-2.97621
549.6,49.6586,0.278623,-2.98221
552.2,49.9174,0.261722,-2.98929
554.8,50.1762,0.247953,-2.99738
557.4,50.435,0.242348,-3.00245
560,50.6939,0.237741,-3.00519
562.6,50.9535,0.225515,-3.01238
565.2,51.2123,0.218858,-3.02144
567.8,51.4728,0.214848,-3.02284
570.4,51.7314,0.226699,-3.02275
573,51.9898,0.221543,-3.02935
575.6,52.25,0.233753,-3.03525
578.2,52.5098,0.246122,-3.04065
580.8,52.7696,0.249547,-3.04597
583.4,53.0287,0.270214,-3.0502
586,53.2903,0.286705,-3.05165
588.6,53.5503,0.237846,-3.05716
591.2,53.8101,0.245769,-3.06206
593.8,54.0697,0.267509,-3.06546
596.4,54.3292,0.281651,-3.06875
599,54.5906,0.292383,-3.0717
601.6,54.8506,0.265354,-3.07357
604.2,55.1098,0.257999,-3.07819
606.8,55.372,0.276842,-3.07878
609.4,55.6322,0.258346,-3.07831
612,55.8935,0.276255,-3.08799
614.6,56.1542,0.292125,-3.08806
617.2,56.4152,0.299272,-3.09192
619.8,56.6752,0.307641,-3.09336
622.4,56.9368,0.301829,-3.09594
625,57.1981,0.316708,-3.09629
627.6,57.4592,0.311014,-3.10433
630.2,57.7195,0.312255,-3.10449
632.8,57.9803,0.306679,-3.1086
635.4,58.2415,0.305452,-3.10566
638,58.5026,0.308372,-3.10738
640.6,58.7628,0.337862,-3.10949
643.2,59.0246,0.331432,-3.11212
645.8,59.285,0.331332,-3.11607
648.4,59.5461,0.332535,-3.1188
651,59.8072,0.317924,-3.12003
653.6,60.0666,0.321156,-3.12134
656.2,60.3287,0.307381,-3.12307
658.8,60.5903,0.306305,-3.12695
661.4,60.8511,0.296296,-3.12694
664,61.1128,0.290385,-3.13056
666.6,61.3744,0.290634,-3.1349
669.2,61.6347,0.281859,-3.1286
671.8,61.8965,0.276739,-3.13408
674.4,62.1566,0.261058,-3.1367
677,62.4182,0.256341,-3.13688
679.6,62.6785,0.24477,-3.13935
682.2,62.9394,0.22179,-3.1441
684.8,63.2005,0.206333,-3.14274
687.4,63.4617,0.190287,-3.14876
690,63.7234,0.171268,-3.14297
692.6,63.9857,0.208538,-3.14797
695.2,64.2469,0.190101,-3.14631
697.8,64.5099,0.179725,-3.15215
700.4,64.7711,0.162667,-3.15736
703,65.033,0.147366,-3.15438
705.6,65.2943,0.137734,-3.15439
708.2,65.5567,0.128909,-3.15509
710.8,65.8193,0.117396,-3.15724
713.4,66.0811,0.118751,-3.16342
716,66.3441,0.132615,-3.16242
718.6,66.6066,0.131509,-3.16489
721.2,66.8681,0.133417,-3.16702
723.8,67.1307,0.103042,-3.16655
726.4,67.3943,0.0688015,-3.16801
729,67.6573,0.0490386,-3.16964
731.6,67.9184,0.0192196,-3.16152
734.2,68.1821,-0.00573051,-3.16994
736.8,68.4443,-0.0170429,-3.17142
739.4,68.7077,-0.0405522,-3.17086
742,68.9702,-0.0452472,-3.1724
744.6,69.2328,-0.0540932,-3.17491
747.2,69.4967,-0.0528629,-3.18221
749.8,69.759,-0.0671949,-3.1849
752.4,70.022,-0.0751773,-3.18567
755,70.2853,-0.0708173,-3.17623
757.6,70.5477,-0.0899352,-3.17646
760.2,70.8098,-0.102954,-3.18753
762.8,71.074,-0.113704,-3.18215
765.4,71.3369,-0.128121,-3.18077
768,71.6014,-0.136745,-3.1837
770.6,71.8656,-0.151635,-3.18897
773.2,72.1291,-0.153791,-3.18622
775.8,72.3944,-0.169124,-3.18644
778.4,72.6581,-0.179499,-3.18579
781,72.9219,-0.178742,-3.18867
783.6,73.1858,-0.188858,-3.18553
786.2,73.4481,-0.179368,-3.19232
788.8,73.7144,-0.195568,-3.19028
790,73.8357,-0.194342,-3.18768