Folder: fsri_materials_database/01_Data/PC_Bourke/STA/N2/30K_min

File: PC_Bourke_STA_N2_30KData_250527_R1.csv
Temp./C,Time/min,DSC/(mW/mg),Mass loss/mg
40.0,0.0,0.962084,0.00317782
42.6,0.157504,1.13955,0.00293466
45.2,0.299892,1.299,0.00327932
47.8,0.433625,1.4168,0.0027573
50.4,0.560007,1.52913,0.00139279
53,0.679939,1.66739,0.00195088
55.6,0.796445,1.93746,0.00201707
58.2,0.908682,1.96656,0.00167792
60.8,1.0189,2.00304,0.0023527
63.4,1.12616,2.05911,0.00294399
66,1.23087,2.11552,0.000873881
68.6,1.33528,2.18052,0.00163936
71.2,1.43699,2.24333,0.00157122
73.8,1.53825,2.29846,-0.00060452
76.4,1.63837,2.35483,-4.24148e-05
79,1.73645,2.37389,0.00039257
81.6,1.8346,2.39727,0.00185974
84.2,1.93078,2.42076,0.00064364
86.8,2.02612,2.45147,0.000220482
89.4,2.12063,2.48604,-0.000106754
92,2.21397,2.53181,-0.00116121
94.6,2.30678,2.58125,-0.00119816
97.2,2.39875,2.63386,-0.000177692
99.8,2.48953,2.68098,6.46632e-05
102.4,2.57991,2.7225,-0.00595238
105,2.66976,2.7681,-0.00108875
107.6,2.75891,2.80428,0.000990523
110.2,2.84775,2.8467,0.000395455
112.8,2.9366,2.89363,0.000329948
115.4,3.02431,2.92991,0.000333625
118,3.11226,2.95878,0.000102141
120.6,3.19988,3.00013,-0.000544175
123.2,3.28675,3.04115,-0.00100611
125.8,3.37258,3.07739,-0.000993953
128.4,3.45829,3.12322,0.000332662
131,3.5434,3.16499,-0.000288809
133.6,3.6277,3.20201,1.64859e-09
136.2,3.71206,3.2396,-3.06067e-06
138.8,3.79615,3.29472,-7.13657e-05
141.4,3.87939,3.35529,0.000320017
144,3.96223,3.44605,-0.00099829
146.6,4.0451,3.55039,-0.000990371
149.2,4.12754,3.65892,0.000330177
151.8,4.20978,3.79193,0.000330007
154.4,4.29159,3.92644,0.00174114
157,4.37323,3.97077,0.000329601
159.6,4.45411,4.02373,0.00033
162.2,4.53473,4.06069,0.000329928
164.8,4.61594,4.10168,0.00164032
167.4,4.69619,4.13045,0.00163912
170,4.77635,4.16586,0.000329961
172.6,4.8564,4.20225,0.00033
175.2,4.93685,4.22685,0.00033
177.8,5.01679,4.2447,0.00033
180.4,5.0958,4.27362,0.00033
183,5.17502,4.28744,0.00033
185.6,5.2541,4.31522,0.00033
188.2,5.33278,4.33767,0.000330636
190.8,5.4114,4.35558,0.000659522
193.4,5.48979,4.38115,0.000660448
196,5.56806,4.39736,0.00132176
198.6,5.64612,4.41854,0.00104674
201.2,5.72358,4.46116,-2.29612e-08
203.8,5.80237,4.48347,-7.08822e-13
206.4,5.87998,4.52255,-2.03382e-11
209,5.95768,4.55284,-1.70859e-07
211.6,6.03475,4.58088,-0.0009886
214.2,6.11313,4.6112,-0.000976549
216.8,6.1904,4.63777,0.000338291
219.4,6.26781,4.65596,0.00065843
222,6.34526,4.67666,0.00197112
224.6,6.4225,4.70194,0.00131292
227.2,6.49968,4.71351,0.000650052
229.8,6.57691,4.73035,-0.000344919
232.4,6.65434,4.75568,-0.000670001
235,6.73096,4.76996,-0.000669895
237.6,6.80791,4.77885,0.000729121
240.2,6.88516,4.79507,0.00196991
242.8,6.96192,4.80728,0.000643279
245.4,7.03872,4.80862,0.000651709
248,7.11554,4.81464,-0.000660122
250.6,7.19211,4.8339,-0.000659801
253.2,7.26821,4.82386,0.000666501
255.8,7.34541,4.83698,0.000660019
258.4,7.42252,4.82952,-6.24452e-05
261,7.49907,4.83606,-9.08971e-05
263.6,7.5756,4.83143,-3.14797e-07
266.2,7.65236,4.83556,-2.42356e-05
268.8,7.7289,4.83211,-0.00132023
271.4,7.80498,4.82724,2.50048e-06
274,7.88187,4.82577,9.60441e-05
276.6,7.95826,4.82801,0.000319145
279.2,8.03486,4.82118,-6.72825e-06
281.8,8.11126,4.82739,0.000319959
284.4,8.18828,4.82776,0.00032
287,8.265,4.82778,0.000320237
289.6,8.3414,4.82902,-0.000665946
292.2,8.41826,4.83898,0.000316374
294.8,8.49479,4.8234,0.000319963
297.4,8.57176,4.81114,0.00131604
300,8.64859,4.81055,0.00132
302.6,8.72529,4.80672,0.00011334
305.2,8.80212,4.79876,5.76156e-08
307.8,8.87902,4.79223,0.000321968
310.4,8.95581,4.78418,0.000329998
313,9.03287,4.78188,0.000816159
315.6,9.10969,4.77494,0.000330022
318.2,9.1869,4.7657,-0.000670989
320.8,9.26395,4.77638,-0.00066
323.4,9.34083,4.77755,-0.00066112
326,9.41799,4.77015,-0.000666546
328.6,9.49513,4.7582,-0.00067
331.2,9.57227,4.72929,-0.00067
333.8,9.64969,4.71957,-0.000670147
336.4,9.7266,4.70282,-0.000656012
339,9.80411,4.6954,-0.00133855
341.6,9.88131,4.684,-0.00131999
344.2,9.95912,4.67398,-0.00100433
346.8,10.0362,4.66662,-0.00132556
349.4,10.114,4.66435,-0.00132
352,10.1918,4.64966,-0.00132064
354.6,10.2696,4.64174,-0.00241227
357.2,10.3473,4.63445,-0.00264
359.8,10.4255,4.62799,-0.00264
362.4,10.5034,4.61568,-0.00254106
365,10.5813,4.60908,-0.00401485
367.6,10.6595,4.60153,-0.00427635
370.2,10.7379,4.59228,-0.00529546
372.8,10.8164,4.57176,-0.00559938
375.4,10.8947,4.56036,-0.00527064
378,10.9734,4.55859,-0.00633725
380.6,11.0517,4.54544,-0.00659256
383.2,11.1303,4.53651,-0.00658747
385.8,11.209,4.52872,-0.00790913
388.4,11.2877,4.51554,-0.00683825
391,11.3667,4.50056,-0.00659222
393.6,11.4455,4.48782,-0.00922627
396.2,11.5249,4.47924,-0.00789993
398.8,11.6039,4.45119,-0.00921113
401.4,11.6827,4.43096,-0.00921289
404,11.7623,4.4203,-0.0105399
406.6,11.8415,4.40402,-0.011567
409.2,11.9207,4.38512,-0.0126953
411.8,12.0003,4.36697,-0.0115297
414.4,12.0795,4.34059,-0.0163416
417,12.159,4.31868,-0.0131032
419.6,12.239,4.30585,-0.0134788
422.2,12.3188,4.26904,-0.0132157
424.8,12.3985,4.2615,-0.0143977
427.4,12.4785,4.24727,-0.0156831
430,12.5584,4.2202,-0.0170027
432.6,12.6386,4.20891,-0.0196608
435.2,12.7189,4.19108,-0.0221018
437.8,12.799,4.17367,-0.0221405
440.4,12.8793,4.14545,-0.023155
443,12.9594,4.12565,-0.0249184
445.6,13.0395,4.09194,-0.0261852
448.2,13.1199,4.08658,-0.0288819
450.8,13.201,4.04712,-0.0318272
453.4,13.2815,4.0088,-0.033272
456,13.3619,3.9606,-0.0374193
458.6,13.4427,3.91132,-0.0415717
461.2,13.5234,3.87285,-0.0462962
463.8,13.6042,3.82751,-0.0504746
466.4,13.6848,3.76743,-0.0573007
469,13.7659,3.71221,-0.0647501
471.6,13.8464,3.65423,-0.0744942
474.2,13.9274,3.60713,-0.0856856
476.8,14.0081,3.52498,-0.0987962
479.4,14.0889,3.48109,-0.113055
482,14.1704,3.41509,-0.132223
484.6,14.2514,3.33563,-0.154932
487.2,14.333,3.3603,-0.179518
489.8,14.4142,3.31007,-0.210156
492.4,14.4957,3.30505,-0.245784
495,14.5782,3.47716,-0.291197
497.6,14.6603,3.58599,-0.348645
500.2,14.7421,3.6285,-0.415941
502.8,14.8243,3.78698,-0.50374
505.4,14.9059,3.91027,-0.601981
508,14.9886,3.96487,-0.712777
510.6,15.071,4.05221,-0.843379
513.2,15.1527,3.85629,-0.983818
515.8,15.2347,3.84343,-1.13047
518.4,15.3173,3.9262,-1.2922
521,15.4003,4.00658,-1.47084
523.6,15.4826,4.08342,-1.66008
526.2,15.565,4.00662,-1.85733
528.8,15.6468,3.76317,-2.05454
531.4,15.7282,3.3314,-2.24184
534,15.8087,2.73377,-2.40527
536.6,15.8891,2.06594,-2.5405
539.2,15.9701,1.47637,-2.647
541.8,16.0513,1.04415,-2.72451
544.4,16.133,0.777715,-2.77958
547,16.2157,0.620827,-2.81913
549.6,16.2984,0.523361,-2.84828
552.2,16.3814,0.468797,-2.87031
554.8,16.4645,0.426118,-2.88817
557.4,16.5477,0.395803,-2.9024
560,16.6311,0.370083,-2.91341
562.6,16.7144,0.343784,-2.92375
565.2,16.7978,0.319166,-2.93285
567.8,16.881,0.298358,-2.94219
570.4,16.9652,0.505988,-2.94932
573,17.0481,0.269993,-2.95347
575.6,17.1313,0.164587,-2.96791
578.2,17.2148,0.0877068,-2.97373
580.8,17.2987,0.0214612,-2.97877
583.4,17.3821,-0.0291842,-2.98499
586,17.4657,-0.0944683,-2.98975
588.6,17.5493,-0.138828,-2.99543
591.2,17.633,-0.186091,-2.99969
593.8,17.7173,-0.190185,-3.00633
596.4,17.8009,-0.206207,-3.01215
599,17.8851,-0.213698,-3.01689
601.6,17.9694,-0.208011,-3.02261
604.2,18.0533,-0.244707,-3.02665
606.8,18.1373,-0.338267,-3.03116
609.4,18.2214,-0.373288,-3.03533
612,18.3059,-0.357522,-3.03979
614.6,18.3905,-0.34181,-3.04439
617.2,18.475,-0.358821,-3.0456
619.8,18.5595,-0.41012,-3.0498
622.4,18.6437,-0.451964,-3.05242
625,18.7284,-0.393968,-3.05611
627.6,18.8134,-0.354382,-3.05816
630.2,18.8983,-0.334537,-3.06199
632.8,18.9829,-0.361627,-3.06543
635.4,19.0678,-0.391559,-3.06838
638,19.1525,-0.41197,-3.07116
640.6,19.2377,-0.420982,-3.07413
643.2,19.3223,-0.415049,-3.07557
645.8,19.4073,-0.434278,-3.07977
648.4,19.492,-0.448464,-3.08
651,19.5771,-0.474888,-3.08237
653.6,19.662,-0.515,-3.08479
656.2,19.7466,-0.581535,-3.08795
658.8,19.8315,-0.633419,-3.08986
661.4,19.916,-0.673904,-3.09225
664,20.0011,-0.708808,-3.09363
666.6,20.0862,-0.688658,-3.09501
669.2,20.1712,-0.679862,-3.09632
671.8,20.2564,-0.686216,-3.09896
674.4,20.3415,-0.705209,-3.10151
677,20.4265,-0.730897,-3.1029
679.6,20.5114,-0.763525,-3.10571
682.2,20.5962,-0.808087,-3.10586
684.8,20.6811,-0.820787,-3.1084
687.4,20.7663,-0.857742,-3.10982
690,20.8514,-0.906865,-3.11155
692.6,20.9365,-0.954492,-3.11245
695.2,21.0217,-1.02228,-3.11377
697.8,21.1064,-1.07266,-3.1164
700.4,21.192,-1.10992,-3.11924
703,21.2772,-1.14063,-3.1195
705.6,21.3624,-1.18532,-3.12085
708.2,21.4477,-1.23688,-3.1231
710.8,21.5332,-1.2679,-3.12442
713.4,21.6184,-1.30661,-3.12438
716,21.7042,-1.33437,-3.1271
718.6,21.79,-1.36895,-3.12837
721.2,21.8758,-1.40205,-3.12993
723.8,21.9615,-1.43559,-3.13256
726.4,22.0472,-1.46019,-3.13287
729,22.1328,-1.49352,-3.13421
731.6,22.2184,-1.50964,-3.13655
734.2,22.3047,-1.53097,-3.13793
736.8,22.3907,-1.55657,-3.13788
739.4,22.4769,-1.57335,-3.13924
742,22.5628,-1.60266,-3.13921
744.6,22.6486,-1.62262,-3.14283
747.2,22.7348,-1.64325,-3.14307
749.8,22.8212,-1.68777,-3.14397
752.4,22.9074,-1.72489,-3.14587
755,22.9934,-1.76086,-3.14847
757.6,23.0799,-1.81413,-3.14845
760.2,23.166,-1.85222,-3.14846
762.8,23.2524,-1.89131,-3.14874
765.4,23.3386,-1.94447,-3.15105
768,23.4249,-2.01078,-3.15101
770.6,23.5114,-2.06389,-3.15238
773.2,23.5978,-2.10632,-3.15702
775.8,23.6842,-2.14316,-3.15286
778.4,23.7707,-2.1761,-3.15397
781,23.8574,-2.19038,-3.15565
783.6,23.9443,-2.21235,-3.15761
786.2,24.031,-2.22216,-3.15891
788.8,24.1175,-2.25205,-3.15889
790,24.1577,-2.25655,-3.16021